subj,trial,S,R,RT,correct,instruction
as1t,1,2,2,0.4319,TRUE,accuracy
as1t,2,2,2,0.5015,TRUE,speed
as1t,3,1,1,0.3104,TRUE,speed
as1t,4,2,2,0.4809,TRUE,accuracy
as1t,5,1,1,0.3415,TRUE,accuracy
as1t,6,1,1,0.3465,TRUE,neutral
as1t,7,1,1,0.3572,TRUE,neutral
as1t,8,2,2,0.4042,TRUE,neutral
as1t,9,1,1,0.3866,TRUE,neutral
as1t,10,2,2,0.3683,TRUE,accuracy
as1t,11,2,2,0.371,TRUE,accuracy
as1t,12,1,1,0.3545,TRUE,neutral
as1t,13,1,2,0.3111,FALSE,accuracy
as1t,14,1,1,0.4169,TRUE,accuracy
as1t,15,2,2,0.5127,TRUE,neutral
as1t,16,2,1,0.4118,FALSE,speed
as1t,17,2,2,0.4826,TRUE,accuracy
as1t,18,2,1,0.4343,FALSE,speed
as1t,19,2,2,0.3803,TRUE,accuracy
as1t,20,1,1,0.5187,TRUE,speed
as1t,21,2,2,0.4716,TRUE,accuracy
as1t,22,1,1,0.5938,TRUE,neutral
as1t,23,1,1,0.3796,TRUE,neutral
as1t,24,1,1,0.4949,TRUE,speed
as1t,25,2,2,0.4693,TRUE,accuracy
as1t,26,2,1,0.3286,FALSE,neutral
as1t,27,1,2,0.4872,FALSE,accuracy
as1t,28,1,1,0.3089,TRUE,neutral
as1t,29,2,2,0.5114,TRUE,speed
as1t,30,1,1,0.2873,TRUE,speed
as1t,31,1,1,0.4389,TRUE,speed
as1t,32,2,2,0.4144,TRUE,neutral
as1t,33,1,1,0.3114,TRUE,neutral
as1t,34,1,1,0.4272,TRUE,neutral
as1t,35,1,1,0.4181,TRUE,accuracy
as1t,36,2,2,0.3373,TRUE,speed
as1t,37,2,1,0.321,FALSE,accuracy
as1t,38,2,2,0.458,TRUE,speed
as1t,39,1,1,0.5226,TRUE,speed
as1t,40,2,2,0.4205,TRUE,speed
as1t,41,2,1,0.4179,FALSE,speed
as1t,42,1,1,0.4914,TRUE,neutral
as1t,43,2,2,0.4112,TRUE,accuracy
as1t,44,2,2,0.3927,TRUE,accuracy
as1t,45,2,2,0.5793,TRUE,neutral
as1t,46,1,1,0.4194,TRUE,neutral
as1t,47,1,1,0.4449,TRUE,speed
as1t,48,2,2,0.4873,TRUE,accuracy
as1t,49,2,2,0.4025,TRUE,neutral
as1t,50,2,2,0.4911,TRUE,speed
as1t,51,1,1,0.3138,TRUE,speed
as1t,52,2,2,0.7872,TRUE,neutral
as1t,53,2,2,0.4621,TRUE,neutral
as1t,54,1,1,0.4605,TRUE,neutral
as1t,55,2,2,0.5369,TRUE,accuracy
as1t,56,2,2,0.4935,TRUE,neutral
as1t,57,1,1,0.325,TRUE,neutral
as1t,58,2,2,0.5663,TRUE,speed
as1t,59,2,1,0.6087,FALSE,accuracy
as1t,60,2,2,0.4528,TRUE,speed
as1t,61,2,1,0.3561,FALSE,speed
as1t,62,2,1,0.5971,FALSE,accuracy
as1t,63,1,1,0.5204,TRUE,neutral
as1t,64,1,1,0.4084,TRUE,neutral
as1t,65,1,1,0.4569,TRUE,accuracy
as1t,66,1,1,0.483,TRUE,accuracy
as1t,67,1,1,0.5611,TRUE,speed
as1t,68,2,1,0.4731,FALSE,neutral
as1t,69,1,1,0.4539,TRUE,accuracy
as1t,70,1,1,0.4068,TRUE,neutral
as1t,71,2,2,0.4937,TRUE,neutral
as1t,72,1,1,0.4483,TRUE,speed
as1t,73,2,2,0.411,TRUE,neutral
as1t,74,2,1,0.7205,FALSE,neutral
as1t,75,1,2,0.4949,FALSE,speed
as1t,76,1,1,0.4455,TRUE,speed
as1t,77,2,2,0.4926,TRUE,accuracy
as1t,78,1,1,0.3879,TRUE,neutral
as1t,79,2,2,0.465,TRUE,neutral
as1t,80,2,1,0.4222,FALSE,speed
as1t,81,1,1,0.4399,TRUE,speed
as1t,82,2,2,0.4755,TRUE,accuracy
as1t,83,1,1,0.6957,TRUE,accuracy
as1t,84,2,2,0.5289,TRUE,accuracy
as1t,85,2,2,0.5916,TRUE,speed
as1t,86,2,1,0.3304,FALSE,speed
as1t,87,1,2,0.5636,FALSE,accuracy
as1t,88,1,1,0.4408,TRUE,speed
as1t,89,2,2,0.463,TRUE,speed
as1t,90,1,1,0.4236,TRUE,accuracy
as1t,91,2,2,0.4592,TRUE,accuracy
as1t,92,1,2,0.2693,FALSE,speed
as1t,93,1,2,0.2952,FALSE,speed
as1t,94,2,2,0.4789,TRUE,accuracy
as1t,95,1,1,0.3169,TRUE,speed
as1t,96,2,1,0.3923,FALSE,neutral
as1t,98,1,1,0.4053,TRUE,speed
as1t,100,1,1,0.5048,TRUE,neutral
as1t,101,1,1,0.4835,TRUE,neutral
as1t,102,2,2,0.5265,TRUE,neutral
as1t,103,2,2,0.4513,TRUE,accuracy
as1t,104,2,2,0.4731,TRUE,accuracy
as1t,105,2,2,0.4288,TRUE,speed
as1t,106,2,2,0.4477,TRUE,neutral
as1t,107,2,2,0.5573,TRUE,accuracy
as1t,108,2,2,0.4584,TRUE,neutral
as1t,109,1,1,0.4639,TRUE,neutral
as1t,110,2,2,0.7772,TRUE,speed
as1t,111,2,2,0.4252,TRUE,neutral
as1t,112,2,2,0.3848,TRUE,speed
as1t,113,2,2,0.4019,TRUE,accuracy
as1t,115,1,1,0.5508,TRUE,neutral
as1t,116,1,1,0.3627,TRUE,speed
as1t,117,2,2,0.4297,TRUE,accuracy
as1t,118,1,1,0.4747,TRUE,accuracy
as1t,119,2,2,0.4237,TRUE,accuracy
as1t,120,2,1,0.4207,FALSE,neutral
as1t,121,1,2,0.3172,FALSE,speed
as1t,122,2,2,0.4012,TRUE,neutral
as1t,123,1,1,0.5346,TRUE,neutral
as1t,124,2,2,0.4813,TRUE,neutral
as1t,125,1,1,0.5952,TRUE,accuracy
as1t,127,1,2,0.3472,FALSE,accuracy
as1t,128,2,2,0.4643,TRUE,neutral
as1t,129,2,2,0.4814,TRUE,speed
as1t,130,1,1,0.401,TRUE,neutral
as1t,131,2,2,0.3694,TRUE,neutral
as1t,132,1,1,0.3772,TRUE,accuracy
as1t,133,1,1,0.5742,TRUE,speed
as1t,134,2,2,0.3782,TRUE,neutral
as1t,135,2,1,0.4619,FALSE,neutral
as1t,136,2,2,0.4138,TRUE,neutral
as1t,137,1,1,0.4528,TRUE,accuracy
as1t,138,2,2,0.3655,TRUE,accuracy
as1t,139,2,2,0.3399,TRUE,accuracy
as1t,140,2,2,0.479,TRUE,neutral
as1t,141,2,2,0.393,TRUE,neutral
as1t,142,2,2,0.3841,TRUE,accuracy
as1t,143,1,1,0.6002,TRUE,neutral
as1t,144,1,1,0.4669,TRUE,speed
as1t,145,2,2,0.4466,TRUE,speed
as1t,146,2,2,0.456,TRUE,neutral
as1t,147,1,1,0.4601,TRUE,accuracy
as1t,148,1,1,0.3923,TRUE,accuracy
as1t,149,2,2,0.4067,TRUE,speed
as1t,150,1,1,0.6388,TRUE,accuracy
as1t,151,2,2,0.3722,TRUE,neutral
as1t,152,2,1,0.5878,FALSE,neutral
as1t,153,1,2,0.4227,FALSE,speed
as1t,154,2,2,0.3978,TRUE,speed
as1t,155,1,2,0.4178,FALSE,accuracy
as1t,156,1,2,0.7814,FALSE,accuracy
as1t,157,1,2,0.4248,FALSE,speed
as1t,158,2,1,0.4782,FALSE,neutral
as1t,159,1,1,0.4422,TRUE,neutral
as1t,160,1,1,0.5291,TRUE,speed
as1t,161,2,1,0.2508,FALSE,speed
as1t,162,2,1,0.3542,FALSE,accuracy
as1t,163,1,2,0.2742,FALSE,speed
as1t,164,1,2,0.4646,FALSE,accuracy
as1t,165,2,2,0.4665,TRUE,accuracy
as1t,166,1,1,0.4027,TRUE,neutral
as1t,167,2,2,0.3085,TRUE,speed
as1t,168,1,1,0.4583,TRUE,accuracy
as1t,169,1,1,0.6759,TRUE,neutral
as1t,170,2,2,0.5509,TRUE,speed
as1t,171,1,1,0.4365,TRUE,neutral
as1t,172,1,2,0.5855,FALSE,neutral
as1t,173,2,2,0.552,TRUE,speed
as1t,174,2,2,0.4266,TRUE,speed
as1t,175,1,1,0.4857,TRUE,accuracy
as1t,176,1,1,0.6528,TRUE,accuracy
as1t,177,2,2,0.48,TRUE,neutral
as1t,178,2,2,0.5891,TRUE,neutral
as1t,179,2,2,0.3986,TRUE,speed
as1t,180,2,2,0.4201,TRUE,accuracy
as1t,181,1,1,0.7018,TRUE,neutral
as1t,182,1,2,0.4592,FALSE,accuracy
as1t,183,2,2,0.5463,TRUE,speed
as1t,184,1,1,0.4831,TRUE,speed
as1t,185,2,2,0.391,TRUE,neutral
as1t,186,1,1,0.4486,TRUE,speed
as1t,187,1,2,0.5876,FALSE,neutral
as1t,189,1,1,0.4442,TRUE,speed
as1t,190,1,1,0.6047,TRUE,neutral
as1t,191,2,1,0.4358,FALSE,neutral
as1t,192,2,2,0.4746,TRUE,speed
as1t,193,1,2,0.3632,FALSE,accuracy
as1t,194,1,2,0.5256,FALSE,accuracy
as1t,195,2,2,0.402,TRUE,neutral
as1t,196,1,1,0.6796,TRUE,speed
as1t,197,1,1,0.7914,TRUE,speed
as1t,198,2,2,0.4348,TRUE,speed
as1t,199,1,2,0.6568,FALSE,neutral
as1t,201,1,2,0.6033,FALSE,neutral
as1t,202,2,2,0.5513,TRUE,accuracy
as1t,203,2,1,0.5813,FALSE,neutral
as1t,204,2,2,0.525,TRUE,accuracy
as1t,205,2,2,0.2798,TRUE,speed
as1t,207,1,1,0.2523,TRUE,speed
as1t,208,2,1,0.3321,FALSE,speed
as1t,209,2,2,0.4299,TRUE,accuracy
as1t,210,1,1,0.5173,TRUE,neutral
as1t,211,1,2,0.6356,FALSE,speed
as1t,212,2,2,0.4517,TRUE,accuracy
as1t,213,1,1,0.675,TRUE,neutral
as1t,214,2,2,0.4096,TRUE,neutral
as1t,215,2,2,0.4336,TRUE,accuracy
as1t,216,1,1,0.4569,TRUE,neutral
as1t,217,1,1,0.409,TRUE,accuracy
as1t,218,2,2,0.492,TRUE,neutral
as1t,219,1,1,0.6233,TRUE,accuracy
as1t,220,2,2,0.4498,TRUE,accuracy
as1t,222,2,2,0.498,TRUE,accuracy
as1t,223,2,2,0.4112,TRUE,accuracy
as1t,224,2,2,0.2876,TRUE,speed
as1t,225,2,1,0.3355,FALSE,speed
as1t,226,2,2,0.3671,TRUE,speed
as1t,227,2,2,0.5044,TRUE,accuracy
as1t,228,2,2,0.4332,TRUE,accuracy
as1t,229,1,1,0.5173,TRUE,neutral
as1t,230,1,1,0.4167,TRUE,speed
as1t,231,1,2,0.6077,FALSE,speed
as1t,232,1,1,0.5463,TRUE,speed
as1t,233,1,1,0.6583,TRUE,speed
as1t,234,2,2,0.5603,TRUE,neutral
as1t,235,1,1,0.5375,TRUE,speed
as1t,236,1,1,0.4121,TRUE,speed
as1t,237,1,1,0.4699,TRUE,accuracy
as1t,238,1,1,0.4044,TRUE,speed
as1t,239,2,2,0.4536,TRUE,accuracy
as1t,240,2,1,0.6896,FALSE,accuracy
as1t,241,2,2,0.3712,TRUE,neutral
as1t,242,2,2,0.3519,TRUE,accuracy
as1t,243,1,1,0.4314,TRUE,neutral
as1t,244,2,2,0.4011,TRUE,accuracy
as1t,245,2,2,0.4584,TRUE,neutral
as1t,246,2,2,0.3586,TRUE,accuracy
as1t,247,2,2,0.4882,TRUE,speed
as1t,248,1,2,0.4748,FALSE,neutral
as1t,249,1,1,0.5834,TRUE,speed
as1t,250,2,2,0.3367,TRUE,accuracy
as1t,251,2,1,0.4662,FALSE,neutral
as1t,252,1,1,0.5583,TRUE,accuracy
as1t,253,2,2,0.382,TRUE,neutral
as1t,255,1,1,0.4591,TRUE,accuracy
as1t,256,2,2,0.4927,TRUE,accuracy
as1t,257,1,1,0.4766,TRUE,speed
as1t,258,2,2,0.4957,TRUE,accuracy
as1t,259,2,1,0.5469,FALSE,accuracy
as1t,260,1,1,0.4361,TRUE,accuracy
as1t,261,1,1,0.382,TRUE,speed
as1t,262,1,2,0.4984,FALSE,speed
as1t,263,1,1,0.437,TRUE,neutral
as1t,264,2,2,0.4367,TRUE,accuracy
as1t,265,2,1,0.3845,FALSE,neutral
as1t,266,1,1,0.6772,TRUE,neutral
as1t,267,2,2,0.4187,TRUE,neutral
as1t,268,1,2,0.4819,FALSE,accuracy
as1t,269,2,2,0.3619,TRUE,speed
as1t,270,2,2,0.5692,TRUE,accuracy
as1t,271,1,1,0.4684,TRUE,speed
as1t,272,1,1,0.3691,TRUE,speed
as1t,273,2,2,0.4472,TRUE,accuracy
as1t,274,2,1,0.4135,FALSE,neutral
as1t,276,1,1,0.3386,TRUE,speed
as1t,277,1,1,0.3522,TRUE,neutral
as1t,278,2,2,0.3882,TRUE,accuracy
as1t,279,2,1,0.4852,FALSE,accuracy
as1t,280,2,2,0.3567,TRUE,accuracy
as1t,281,1,1,0.4128,TRUE,speed
as1t,282,2,2,0.3609,TRUE,accuracy
as1t,283,1,1,0.4359,TRUE,neutral
as1t,284,2,2,0.4232,TRUE,speed
as1t,285,1,1,0.5396,TRUE,speed
as1t,286,1,1,0.4162,TRUE,accuracy
as1t,287,1,1,0.422,TRUE,accuracy
as1t,288,1,2,0.4698,FALSE,neutral
as1t,290,1,1,0.4827,TRUE,neutral
as1t,291,1,2,0.4768,FALSE,neutral
as1t,292,2,2,0.585,TRUE,neutral
as1t,293,1,1,0.4128,TRUE,neutral
as1t,294,1,2,0.4402,FALSE,neutral
as1t,295,2,2,0.7228,TRUE,speed
as1t,296,1,2,0.6428,FALSE,accuracy
as1t,297,1,1,0.4409,TRUE,neutral
as1t,298,2,2,0.4642,TRUE,accuracy
as1t,299,2,1,0.4315,FALSE,accuracy
as1t,300,1,2,0.6628,FALSE,accuracy
as1t,301,1,2,0.7461,FALSE,neutral
as1t,302,1,1,0.5233,TRUE,speed
as1t,303,2,2,0.5865,TRUE,speed
as1t,304,2,2,0.5548,TRUE,accuracy
as1t,305,1,1,0.4716,TRUE,neutral
as1t,306,1,1,0.4277,TRUE,accuracy
as1t,307,2,2,0.4423,TRUE,neutral
as1t,309,1,1,0.4188,TRUE,speed
as1t,310,1,1,0.4141,TRUE,neutral
as1t,311,2,1,0.4767,FALSE,accuracy
as1t,312,1,1,0.7544,TRUE,accuracy
as1t,313,1,1,0.2666,TRUE,speed
as1t,314,2,2,0.5793,TRUE,accuracy
as1t,315,1,1,0.5217,TRUE,accuracy
as1t,316,2,2,0.4692,TRUE,accuracy
as1t,317,2,2,0.3557,TRUE,speed
as1t,318,1,1,0.5117,TRUE,neutral
as1t,319,2,2,0.4572,TRUE,neutral
as1t,320,2,2,0.5874,TRUE,neutral
as1t,321,1,1,0.68,TRUE,neutral
as1t,322,2,1,0.5287,FALSE,speed
as1t,323,2,1,0.6025,FALSE,neutral
as1t,325,1,2,0.5145,FALSE,speed
as1t,326,1,1,0.4178,TRUE,accuracy
as1t,327,1,1,0.4074,TRUE,neutral
as1t,328,2,2,0.5551,TRUE,accuracy
as1t,329,1,1,0.5009,TRUE,speed
as1t,330,2,2,0.6435,TRUE,speed
as1t,331,2,1,0.8565,FALSE,neutral
as1t,332,1,1,0.6585,TRUE,neutral
as1t,333,2,2,0.716,TRUE,accuracy
as1t,334,2,2,0.5658,TRUE,neutral
as1t,335,2,2,0.4019,TRUE,accuracy
as1t,336,1,1,0.479,TRUE,neutral
as1t,337,2,2,0.3955,TRUE,neutral
as1t,338,1,1,0.6886,TRUE,speed
as1t,339,2,2,0.4796,TRUE,accuracy
as1t,340,1,1,0.4081,TRUE,accuracy
as1t,341,1,1,0.6296,TRUE,neutral
as1t,342,2,2,0.4484,TRUE,speed
as1t,343,2,2,0.3245,TRUE,speed
as1t,344,1,2,0.4453,FALSE,speed
as1t,345,2,2,0.4416,TRUE,accuracy
as1t,346,2,2,0.4569,TRUE,accuracy
as1t,347,1,1,0.3835,TRUE,speed
as1t,348,2,2,0.4268,TRUE,speed
as1t,349,2,2,0.6632,TRUE,neutral
as1t,350,2,1,0.5473,FALSE,neutral
as1t,351,2,2,0.4068,TRUE,neutral
as1t,352,1,2,0.4656,FALSE,accuracy
as1t,353,2,2,0.4445,TRUE,accuracy
as1t,354,1,1,0.7392,TRUE,neutral
as1t,355,1,1,0.7759,TRUE,accuracy
as1t,356,2,2,0.4904,TRUE,accuracy
as1t,357,1,1,0.4984,TRUE,speed
as1t,358,2,2,0.6866,TRUE,accuracy
as1t,359,2,2,0.5258,TRUE,accuracy
as1t,360,1,1,0.4929,TRUE,accuracy
as1t,361,1,2,0.4555,FALSE,accuracy
as1t,362,2,1,0.6289,FALSE,speed
as1t,363,1,1,0.4632,TRUE,neutral
as1t,364,2,2,0.5156,TRUE,neutral
as1t,365,2,2,0.7106,TRUE,accuracy
as1t,366,2,2,0.499,TRUE,speed
as1t,367,1,1,0.5708,TRUE,speed
as1t,368,2,2,0.474,TRUE,accuracy
as1t,369,2,2,0.4638,TRUE,accuracy
as1t,370,1,1,0.4746,TRUE,speed
as1t,371,1,1,0.4371,TRUE,speed
as1t,372,2,2,0.5902,TRUE,neutral
as1t,373,1,1,0.4809,TRUE,speed
as1t,374,2,2,0.5002,TRUE,speed
as1t,375,2,2,0.5775,TRUE,speed
as1t,376,1,2,0.3824,FALSE,neutral
as1t,377,1,1,0.4268,TRUE,accuracy
as1t,378,1,2,0.4643,FALSE,speed
as1t,379,1,1,0.4541,TRUE,speed
as1t,381,2,1,0.485,FALSE,neutral
as1t,382,2,2,0.5349,TRUE,neutral
as1t,383,2,2,0.3091,TRUE,speed
as1t,384,2,1,0.301,FALSE,speed
as1t,385,2,2,0.3443,TRUE,neutral
as1t,386,2,2,0.3693,TRUE,accuracy
as1t,387,2,2,0.4743,TRUE,accuracy
as1t,389,2,2,0.3053,TRUE,accuracy
as1t,390,2,1,0.3467,FALSE,neutral
as1t,391,2,2,0.3113,TRUE,neutral
as1t,392,1,1,0.4046,TRUE,speed
as1t,393,1,2,0.4999,FALSE,speed
as1t,394,1,1,0.5724,TRUE,accuracy
as1t,395,1,2,0.3045,FALSE,neutral
as1t,396,2,2,0.5084,TRUE,neutral
as1t,397,1,2,0.5888,FALSE,accuracy
as1t,398,2,2,0.4841,TRUE,speed
as1t,399,2,2,0.3697,TRUE,accuracy
as1t,400,2,2,0.9912,TRUE,accuracy
as1t,401,1,1,0.522,TRUE,accuracy
as1t,402,2,2,0.472,TRUE,neutral
as1t,403,1,1,0.3791,TRUE,neutral
as1t,404,1,1,0.5724,TRUE,neutral
as1t,405,2,2,0.5767,TRUE,neutral
as1t,406,2,2,0.4022,TRUE,neutral
as1t,407,1,1,0.6029,TRUE,neutral
as1t,408,1,2,0.5423,FALSE,accuracy
as1t,409,2,2,0.4947,TRUE,speed
as1t,410,1,1,0.5496,TRUE,accuracy
as1t,411,2,2,0.5482,TRUE,neutral
as1t,412,2,2,0.4215,TRUE,accuracy
as1t,413,1,1,0.4514,TRUE,accuracy
as1t,414,2,2,0.3769,TRUE,neutral
as1t,415,1,2,0.4593,FALSE,speed
as1t,416,2,2,0.4322,TRUE,neutral
as1t,417,1,1,0.5575,TRUE,accuracy
as1t,418,2,2,0.5047,TRUE,accuracy
as1t,419,1,1,0.572,TRUE,accuracy
as1t,420,1,2,0.5522,FALSE,neutral
as1t,421,1,2,0.4058,FALSE,accuracy
as1t,422,1,1,0.4881,TRUE,neutral
as1t,423,2,2,0.3836,TRUE,neutral
as1t,424,2,2,0.4176,TRUE,speed
as1t,425,1,2,0.5459,FALSE,neutral
as1t,426,2,2,0.4428,TRUE,accuracy
as1t,427,2,2,0.4054,TRUE,accuracy
as1t,428,1,1,0.4755,TRUE,speed
as1t,429,1,1,0.4716,TRUE,speed
as1t,430,2,2,0.6224,TRUE,neutral
as1t,431,2,2,0.451,TRUE,speed
as1t,432,1,1,0.5376,TRUE,neutral
as1t,433,2,2,0.5971,TRUE,speed
as1t,434,1,1,0.7023,TRUE,neutral
as1t,436,2,1,0.4679,FALSE,neutral
as1t,437,1,2,0.6829,FALSE,neutral
as1t,438,1,1,0.6998,TRUE,accuracy
as1t,439,1,1,0.5494,TRUE,neutral
as1t,440,1,1,0.4187,TRUE,neutral
as1t,441,1,2,0.4227,FALSE,accuracy
as1t,442,2,2,0.5228,TRUE,neutral
as1t,443,2,2,0.5912,TRUE,neutral
as1t,444,2,2,0.4216,TRUE,neutral
as1t,445,2,2,0.5025,TRUE,accuracy
as1t,446,2,2,0.4498,TRUE,accuracy
as1t,447,1,1,0.5198,TRUE,speed
as1t,448,1,1,0.4057,TRUE,accuracy
as1t,449,2,2,0.4566,TRUE,speed
as1t,450,2,1,0.6181,FALSE,neutral
as1t,451,1,2,0.4917,FALSE,neutral
as1t,452,2,2,0.5861,TRUE,accuracy
as1t,453,2,2,0.8328,TRUE,neutral
as1t,454,1,1,0.6707,TRUE,speed
as1t,455,1,1,0.5711,TRUE,speed
as1t,456,2,2,0.4784,TRUE,neutral
as1t,457,1,1,0.7311,TRUE,neutral
as1t,459,2,2,0.5818,TRUE,accuracy
as1t,460,1,1,0.6683,TRUE,speed
as1t,461,1,1,0.4194,TRUE,accuracy
as1t,462,1,1,0.7011,TRUE,accuracy
as1t,463,2,2,0.5871,TRUE,accuracy
as1t,464,2,2,0.5701,TRUE,neutral
as1t,465,2,1,0.3587,FALSE,neutral
as1t,466,2,2,0.3526,TRUE,speed
as1t,467,2,2,0.2969,TRUE,speed
as1t,469,2,2,0.3871,TRUE,accuracy
as1t,470,1,2,0.3434,FALSE,speed
as1t,472,1,2,0.5736,FALSE,neutral
as1t,473,2,2,0.3981,TRUE,accuracy
as1t,474,2,2,0.3372,TRUE,accuracy
as1t,475,2,2,0.535,TRUE,accuracy
as1t,476,1,1,0.4565,TRUE,speed
as1t,477,1,1,0.3762,TRUE,neutral
as1t,478,2,1,0.388,FALSE,neutral
as1t,479,1,2,0.4163,FALSE,accuracy
as1t,480,2,1,0.6115,FALSE,neutral
as1t,481,2,2,0.4045,TRUE,speed
as1t,482,2,2,0.516,TRUE,neutral
as1t,483,2,2,0.6016,TRUE,accuracy
as1t,484,1,1,0.4659,TRUE,neutral
as1t,485,2,2,0.4315,TRUE,speed
as1t,486,1,1,1.1555,TRUE,neutral
as1t,487,2,2,0.3953,TRUE,accuracy
as1t,488,1,2,0.4535,FALSE,neutral
as1t,489,1,1,0.644,TRUE,accuracy
as1t,490,1,1,0.4852,TRUE,speed
as1t,491,2,2,0.3381,TRUE,neutral
as1t,493,2,1,0.4528,FALSE,accuracy
as1t,494,2,2,0.5129,TRUE,neutral
as1t,496,2,2,0.581,TRUE,speed
as1t,497,1,1,0.4424,TRUE,accuracy
as1t,498,1,1,0.5013,TRUE,neutral
as1t,499,1,1,0.3494,TRUE,speed
as1t,500,1,1,0.3663,TRUE,speed
as1t,501,1,1,0.6872,TRUE,accuracy
as1t,503,2,2,0.3457,TRUE,speed
as1t,504,1,2,0.3136,FALSE,speed
as1t,505,2,2,0.294,TRUE,speed
as1t,506,2,2,0.2633,TRUE,neutral
as1t,507,2,2,0.2793,TRUE,accuracy
as1t,508,1,2,0.3105,FALSE,neutral
as1t,509,1,1,0.3158,TRUE,neutral
as1t,510,2,1,0.3589,FALSE,accuracy
as1t,512,2,2,0.2796,TRUE,speed
as1t,513,2,2,0.2578,TRUE,speed
as1t,516,1,2,0.3007,FALSE,neutral
as1t,517,1,1,0.5909,TRUE,neutral
as1t,518,1,1,0.4864,TRUE,neutral
as1t,519,1,1,0.4821,TRUE,accuracy
as1t,520,1,1,0.4931,TRUE,neutral
as1t,521,2,2,0.383,TRUE,accuracy
as1t,522,1,2,0.3154,FALSE,speed
as1t,523,1,1,0.3949,TRUE,speed
as1t,524,2,2,0.4983,TRUE,neutral
as1t,525,1,1,0.6683,TRUE,accuracy
as1t,526,2,2,0.6242,TRUE,speed
as1t,527,1,2,0.2692,FALSE,speed
as1t,528,2,2,0.3091,TRUE,accuracy
as1t,529,2,1,0.449,FALSE,accuracy
as1t,530,1,2,0.3353,FALSE,neutral
as1t,531,1,1,0.466,TRUE,accuracy
as1t,532,2,2,0.4097,TRUE,accuracy
as1t,533,2,1,0.3959,FALSE,neutral
as1t,534,2,2,0.4376,TRUE,accuracy
as1t,535,2,1,0.4254,FALSE,speed
as1t,536,1,2,0.4713,FALSE,neutral
as1t,537,1,1,0.5533,TRUE,neutral
as1t,538,1,1,0.5079,TRUE,accuracy
as1t,539,2,2,0.4729,TRUE,speed
as1t,540,2,1,0.5634,FALSE,speed
as1t,541,2,2,0.373,TRUE,accuracy
as1t,542,1,1,0.5239,TRUE,accuracy
as1t,543,1,2,0.3659,FALSE,neutral
as1t,544,2,2,0.4424,TRUE,speed
as1t,545,2,2,0.3462,TRUE,accuracy
as1t,546,1,1,0.4674,TRUE,neutral
as1t,547,1,1,0.404,TRUE,neutral
as1t,548,2,2,0.4814,TRUE,speed
as1t,549,2,2,0.3433,TRUE,neutral
as1t,550,1,2,0.369,FALSE,neutral
as1t,551,1,1,0.4215,TRUE,accuracy
as1t,552,1,2,0.4745,FALSE,neutral
as1t,553,2,1,0.4393,FALSE,accuracy
as1t,554,2,2,0.3641,TRUE,accuracy
as1t,555,1,1,0.5782,TRUE,accuracy
as1t,556,2,2,0.5016,TRUE,neutral
as1t,557,2,2,0.4742,TRUE,accuracy
as1t,558,1,1,0.7236,TRUE,accuracy
as1t,560,1,1,0.4133,TRUE,accuracy
as1t,561,2,2,0.6011,TRUE,neutral
as1t,562,2,1,0.4981,FALSE,neutral
as1t,563,1,1,0.6303,TRUE,speed
as1t,565,1,1,0.45,TRUE,accuracy
as1t,566,1,2,0.3239,FALSE,accuracy
as1t,567,2,1,0.7392,FALSE,speed
as1t,568,2,2,0.3461,TRUE,accuracy
as1t,569,1,1,0.6793,TRUE,neutral
as1t,570,2,2,0.4375,TRUE,neutral
as1t,571,1,2,0.4319,FALSE,accuracy
as1t,572,2,1,0.3065,FALSE,speed
as1t,573,2,1,0.433,FALSE,neutral
as1t,574,2,2,0.4324,TRUE,neutral
as1t,575,2,2,0.4719,TRUE,neutral
as1t,576,1,1,0.4404,TRUE,neutral
as1t,577,1,1,0.6317,TRUE,accuracy
as1t,578,2,2,0.3505,TRUE,neutral
as1t,579,2,2,0.4133,TRUE,accuracy
as1t,580,1,1,0.4387,TRUE,neutral
as1t,581,1,1,0.4832,TRUE,speed
as1t,582,1,1,0.4816,TRUE,accuracy
as1t,583,2,2,0.4933,TRUE,speed
as1t,584,2,1,0.6091,FALSE,accuracy
as1t,585,2,2,0.4465,TRUE,accuracy
as1t,586,1,2,0.3335,FALSE,speed
as1t,587,2,1,0.5856,FALSE,speed
as1t,588,2,2,0.5166,TRUE,speed
as1t,589,1,1,0.5371,TRUE,speed
as1t,590,2,2,0.4332,TRUE,speed
as1t,591,1,1,0.6427,TRUE,neutral
as1t,593,2,2,0.4395,TRUE,neutral
as1t,594,2,2,0.4116,TRUE,accuracy
as1t,595,2,2,0.4436,TRUE,speed
as1t,596,1,1,0.3622,TRUE,accuracy
as1t,597,1,1,0.3952,TRUE,neutral
as1t,598,2,2,0.3421,TRUE,speed
as1t,599,2,1,0.4238,FALSE,accuracy
as1t,600,1,1,0.4332,TRUE,speed
as1t,601,1,1,0.5474,TRUE,accuracy
as1t,602,1,2,0.2985,FALSE,speed
as1t,603,1,1,0.529,TRUE,accuracy
as1t,605,1,1,0.5264,TRUE,neutral
as1t,606,2,2,0.3902,TRUE,speed
as1t,607,2,2,0.5512,TRUE,neutral
as1t,608,1,1,0.4517,TRUE,speed
as1t,609,1,2,0.4979,FALSE,neutral
as1t,610,1,1,0.6357,TRUE,neutral
as1t,611,1,1,0.4499,TRUE,accuracy
as1t,612,2,2,0.4675,TRUE,neutral
as1t,613,1,1,0.4413,TRUE,accuracy
as1t,614,2,2,0.3713,TRUE,neutral
as1t,615,1,1,0.4428,TRUE,neutral
as1t,616,2,2,0.4675,TRUE,neutral
as1t,617,1,2,0.415,FALSE,accuracy
as1t,618,1,1,0.4393,TRUE,accuracy
as1t,619,1,1,0.5997,TRUE,speed
as1t,620,2,2,0.5253,TRUE,speed
as1t,621,2,2,0.4903,TRUE,speed
as1t,622,2,2,0.3937,TRUE,neutral
as1t,623,1,2,0.4023,FALSE,accuracy
as1t,624,1,1,0.4308,TRUE,neutral
as1t,625,1,2,0.2614,FALSE,speed
as1t,626,2,2,0.3829,TRUE,neutral
as1t,627,1,2,0.4673,FALSE,neutral
as1t,628,2,2,0.4981,TRUE,accuracy
as1t,629,1,1,0.318,TRUE,accuracy
as1t,630,2,1,0.31,FALSE,speed
as1t,631,1,2,0.2761,FALSE,accuracy
as1t,632,2,2,0.4339,TRUE,accuracy
as1t,633,2,2,0.4555,TRUE,speed
as1t,634,1,1,0.4691,TRUE,accuracy
as1t,635,1,2,0.4126,FALSE,neutral
as1t,636,2,2,0.6631,TRUE,accuracy
as1t,638,2,2,0.4294,TRUE,accuracy
as1t,639,2,2,0.4148,TRUE,accuracy
as1t,640,2,2,0.4885,TRUE,neutral
as1t,641,1,2,0.4429,FALSE,speed
as1t,642,2,2,0.3264,TRUE,neutral
as1t,643,2,2,0.4103,TRUE,neutral
as1t,644,2,2,0.4214,TRUE,neutral
as1t,645,2,2,0.3505,TRUE,accuracy
as1t,646,1,2,0.4707,FALSE,speed
as1t,647,2,1,0.4721,FALSE,neutral
as1t,648,2,2,0.5933,TRUE,accuracy
as1t,649,2,2,0.4593,TRUE,neutral
as1t,650,2,2,0.5477,TRUE,speed
as1t,651,1,2,0.3336,FALSE,neutral
as1t,652,2,2,0.5216,TRUE,speed
as1t,653,1,1,0.4536,TRUE,accuracy
as1t,654,1,1,0.7077,TRUE,neutral
as1t,655,2,2,0.5944,TRUE,speed
as1t,656,1,1,0.6098,TRUE,accuracy
as1t,657,1,2,0.4589,FALSE,neutral
as1t,658,1,1,0.4856,TRUE,neutral
as1t,659,1,1,0.4119,TRUE,neutral
as1t,660,2,1,0.4938,FALSE,neutral
as1t,661,2,2,0.4777,TRUE,neutral
as1t,662,1,2,0.3548,FALSE,speed
as1t,663,1,1,0.4324,TRUE,accuracy
as1t,664,2,2,0.4175,TRUE,neutral
as1t,665,2,2,0.4766,TRUE,speed
as1t,666,1,2,0.4652,FALSE,speed
as1t,667,2,1,0.3244,FALSE,accuracy
as1t,668,1,2,0.4605,FALSE,speed
as1t,669,1,1,0.4801,TRUE,accuracy
as1t,670,1,1,0.4968,TRUE,accuracy
as1t,671,2,2,0.4978,TRUE,neutral
as1t,672,2,2,0.3863,TRUE,accuracy
as1t,673,2,2,0.4643,TRUE,speed
as1t,674,1,2,0.4068,FALSE,accuracy
as1t,675,2,1,0.598,FALSE,speed
as1t,676,1,2,0.4342,FALSE,speed
as1t,678,1,1,0.359,TRUE,neutral
as1t,680,1,1,0.4476,TRUE,accuracy
as1t,681,1,2,0.441,FALSE,neutral
as1t,682,1,1,0.375,TRUE,speed
as1t,683,2,2,0.2923,TRUE,speed
as1t,684,2,1,0.4312,FALSE,speed
as1t,685,2,2,0.294,TRUE,neutral
as1t,686,2,2,0.4659,TRUE,speed
as1t,687,2,2,0.3589,TRUE,speed
as1t,688,1,2,0.4166,FALSE,accuracy
as1t,689,2,1,0.7456,FALSE,accuracy
as1t,690,2,2,0.3937,TRUE,accuracy
as1t,691,2,1,0.6439,FALSE,speed
as1t,692,1,2,0.4445,FALSE,accuracy
as1t,693,1,1,0.4728,TRUE,accuracy
as1t,694,1,1,0.4326,TRUE,speed
as1t,695,1,2,0.329,FALSE,speed
as1t,696,2,2,0.4901,TRUE,neutral
as1t,697,1,1,0.6269,TRUE,speed
as1t,698,1,1,0.7798,TRUE,accuracy
as1t,699,2,2,0.5139,TRUE,accuracy
as1t,700,2,2,0.5085,TRUE,speed
as1t,701,1,2,0.4865,FALSE,neutral
as1t,703,2,2,0.4748,TRUE,speed
as1t,704,1,2,0.4968,FALSE,accuracy
as1t,705,1,1,0.5038,TRUE,accuracy
as1t,706,1,1,0.3446,TRUE,speed
as1t,707,1,2,0.6189,FALSE,accuracy
as1t,708,1,1,0.4534,TRUE,neutral
as1t,709,1,2,0.47,FALSE,neutral
as1t,710,2,2,0.7471,TRUE,speed
as1t,711,2,2,0.6604,TRUE,neutral
as1t,712,1,1,0.2771,TRUE,neutral
as1t,715,2,2,0.3307,TRUE,speed
as1t,716,1,2,0.3643,FALSE,speed
as1t,717,1,2,0.3445,FALSE,neutral
as1t,719,1,2,0.5619,FALSE,speed
as1t,720,2,2,0.4711,TRUE,accuracy
as1t,721,1,1,0.4035,TRUE,neutral
as1t,722,1,1,0.5441,TRUE,neutral
as1t,723,1,1,0.5151,TRUE,accuracy
as1t,724,2,2,0.7922,TRUE,accuracy
as1t,725,1,1,0.445,TRUE,neutral
as1t,726,1,2,0.5747,FALSE,neutral
as1t,727,1,1,0.4916,TRUE,accuracy
as1t,728,2,2,0.4083,TRUE,speed
as1t,729,1,1,0.4026,TRUE,neutral
as1t,730,2,2,0.4343,TRUE,speed
as1t,731,2,2,0.4974,TRUE,speed
as1t,732,1,1,0.4934,TRUE,neutral
as1t,733,1,2,0.4699,FALSE,accuracy
as1t,734,1,2,0.5271,FALSE,speed
as1t,735,1,1,0.5407,TRUE,neutral
as1t,736,2,2,0.6062,TRUE,accuracy
as1t,737,1,1,0.5616,TRUE,speed
as1t,738,2,2,0.4861,TRUE,accuracy
as1t,739,2,2,0.3018,TRUE,speed
as1t,740,2,1,0.5459,FALSE,accuracy
as1t,741,1,2,0.322,FALSE,accuracy
as1t,742,2,2,0.3241,TRUE,accuracy
as1t,743,1,1,0.4758,TRUE,speed
as1t,744,1,1,0.6005,TRUE,speed
as1t,745,1,1,0.7259,TRUE,neutral
as1t,746,1,1,0.628,TRUE,neutral
as1t,747,2,2,0.3681,TRUE,accuracy
as1t,748,1,2,0.5125,FALSE,speed
as1t,749,1,2,0.5574,FALSE,accuracy
as1t,750,1,2,0.3383,FALSE,speed
as1t,751,2,1,0.3469,FALSE,speed
as1t,752,2,2,0.5374,TRUE,neutral
as1t,753,1,1,0.45,TRUE,accuracy
as1t,754,2,2,0.4167,TRUE,neutral
as1t,755,2,2,0.5426,TRUE,speed
as1t,756,1,1,0.5943,TRUE,accuracy
as1t,757,2,2,0.4327,TRUE,speed
as1t,758,2,2,0.3649,TRUE,speed
as1t,759,2,2,0.4039,TRUE,neutral
as1t,760,2,2,0.5624,TRUE,neutral
as1t,761,2,2,0.5103,TRUE,accuracy
as1t,762,1,1,0.7979,TRUE,speed
as1t,763,1,1,0.4657,TRUE,accuracy
as1t,764,1,1,0.5042,TRUE,neutral
as1t,765,2,2,0.6355,TRUE,accuracy
as1t,766,2,2,0.5223,TRUE,accuracy
as1t,767,1,1,0.828,TRUE,accuracy
as1t,768,1,1,0.5695,TRUE,neutral
as1t,769,1,1,0.5856,TRUE,neutral
as1t,770,1,1,0.7599,TRUE,accuracy
as1t,771,2,2,0.6885,TRUE,neutral
as1t,772,1,1,0.5495,TRUE,speed
as1t,773,2,2,0.6027,TRUE,speed
as1t,774,1,1,0.4856,TRUE,speed
as1t,775,1,1,0.464,TRUE,accuracy
as1t,776,1,1,0.4544,TRUE,speed
as1t,777,2,1,0.4741,FALSE,accuracy
as1t,778,1,1,0.6497,TRUE,accuracy
as1t,779,1,2,0.5546,FALSE,neutral
as1t,780,1,1,0.5257,TRUE,neutral
as1t,781,1,2,0.3688,FALSE,neutral
as1t,782,1,1,0.4666,TRUE,neutral
as1t,783,2,2,0.5736,TRUE,accuracy
as1t,784,1,1,0.4697,TRUE,accuracy
as1t,785,2,2,0.5503,TRUE,accuracy
as1t,786,1,1,0.4341,TRUE,neutral
as1t,787,2,2,0.5183,TRUE,accuracy
as1t,788,2,2,0.4844,TRUE,accuracy
as1t,789,1,1,0.4545,TRUE,neutral
as1t,790,1,1,0.4132,TRUE,neutral
as1t,791,1,1,0.551,TRUE,speed
as1t,792,2,2,0.5294,TRUE,accuracy
as1t,793,1,1,0.3933,TRUE,speed
as1t,794,2,2,0.4128,TRUE,speed
as1t,795,1,1,0.6753,TRUE,accuracy
as1t,797,2,1,0.376,FALSE,speed
as1t,798,2,2,0.4447,TRUE,neutral
as1t,799,2,1,0.3428,FALSE,neutral
as1t,800,1,1,0.6472,TRUE,accuracy
as1t,801,2,2,0.4005,TRUE,accuracy
as1t,802,1,1,0.3786,TRUE,speed
as1t,803,2,2,0.3038,TRUE,speed
as1t,804,2,1,0.446,FALSE,accuracy
as1t,805,1,1,0.3256,TRUE,speed
as1t,806,2,2,0.4634,TRUE,neutral
as1t,807,2,1,0.4357,FALSE,neutral
as1t,809,2,2,0.4357,TRUE,accuracy
as1t,810,2,2,0.4166,TRUE,accuracy
as1t,811,1,1,0.5086,TRUE,accuracy
as1t,812,1,1,0.513,TRUE,neutral
as1t,813,1,1,0.4108,TRUE,neutral
as1t,814,1,1,0.5413,TRUE,speed
as1t,815,1,2,0.478,FALSE,speed
as1t,816,1,1,0.6293,TRUE,accuracy
as1t,817,1,1,0.5093,TRUE,accuracy
as1t,818,1,1,0.5967,TRUE,neutral
as1t,820,1,1,0.5245,TRUE,speed
as1t,821,2,2,0.6227,TRUE,speed
as1t,822,1,2,0.377,FALSE,speed
as1t,823,1,1,0.4111,TRUE,speed
as1t,824,2,1,0.3416,FALSE,neutral
as1t,825,2,2,0.3155,TRUE,speed
as1t,826,1,1,0.4167,TRUE,neutral
as1t,827,1,2,0.6447,FALSE,accuracy
as1t,828,2,2,0.4244,TRUE,accuracy
as1t,830,1,1,0.4956,TRUE,speed
as1t,831,2,1,0.5715,FALSE,neutral
as1t,832,2,2,0.6243,TRUE,speed
as1t,833,1,2,0.4567,FALSE,neutral
as1t,834,2,1,0.7021,FALSE,neutral
as1t,835,2,2,0.5079,TRUE,accuracy
as1t,836,2,2,0.3801,TRUE,accuracy
as1t,837,2,1,0.4703,FALSE,accuracy
as1t,838,1,2,0.4449,FALSE,neutral
as1t,839,1,2,0.3485,FALSE,accuracy
as1t,840,1,1,0.3878,TRUE,speed
as1t,841,1,2,0.3522,FALSE,neutral
as1t,842,1,1,0.6256,TRUE,accuracy
as1t,843,2,1,0.5258,FALSE,speed
as1t,844,2,2,0.56,TRUE,neutral
as1t,845,2,2,0.3896,TRUE,speed
as1t,846,1,2,0.4246,FALSE,neutral
as1t,847,1,1,0.5341,TRUE,speed
as1t,848,1,1,0.419,TRUE,accuracy
as1t,849,1,1,0.6266,TRUE,neutral
as1t,850,2,2,0.6752,TRUE,neutral
bd6t,1,2,2,0.324,TRUE,speed
bd6t,2,1,1,0.3974,TRUE,neutral
bd6t,3,1,1,0.4014,TRUE,neutral
bd6t,4,1,1,0.4131,TRUE,neutral
bd6t,5,2,2,0.3381,TRUE,neutral
bd6t,6,1,1,0.3778,TRUE,neutral
bd6t,7,1,1,0.473,TRUE,neutral
bd6t,8,2,1,0.365,FALSE,speed
bd6t,9,1,1,0.4257,TRUE,accuracy
bd6t,10,2,2,0.3242,TRUE,speed
bd6t,11,2,2,0.3802,TRUE,speed
bd6t,12,1,1,0.5582,TRUE,accuracy
bd6t,13,2,1,0.4586,FALSE,accuracy
bd6t,14,1,1,0.3686,TRUE,accuracy
bd6t,15,2,2,0.4154,TRUE,accuracy
bd6t,16,1,1,0.3763,TRUE,speed
bd6t,17,2,2,0.4514,TRUE,neutral
bd6t,18,1,1,0.501,TRUE,accuracy
bd6t,19,1,1,0.4245,TRUE,accuracy
bd6t,20,2,2,0.5131,TRUE,neutral
bd6t,21,1,1,0.4263,TRUE,speed
bd6t,22,2,2,0.5761,TRUE,accuracy
bd6t,23,2,1,0.4764,FALSE,accuracy
bd6t,24,2,2,0.5914,TRUE,speed
bd6t,25,2,2,0.4226,TRUE,accuracy
bd6t,26,2,2,0.4036,TRUE,speed
bd6t,27,1,1,0.3927,TRUE,neutral
bd6t,28,1,1,0.4207,TRUE,accuracy
bd6t,29,1,2,0.5368,FALSE,accuracy
bd6t,30,2,2,0.3954,TRUE,neutral
bd6t,31,2,2,0.3774,TRUE,speed
bd6t,32,2,2,0.3709,TRUE,neutral
bd6t,33,2,2,0.3778,TRUE,speed
bd6t,34,2,2,0.4067,TRUE,speed
bd6t,35,2,2,0.3377,TRUE,speed
bd6t,36,1,2,0.38,FALSE,speed
bd6t,37,1,1,0.3983,TRUE,speed
bd6t,38,1,2,0.3689,FALSE,neutral
bd6t,39,2,2,0.5775,TRUE,speed
bd6t,40,2,2,0.4605,TRUE,neutral
bd6t,41,1,1,0.3824,TRUE,neutral
bd6t,42,1,1,0.3442,TRUE,accuracy
bd6t,43,2,2,0.5086,TRUE,accuracy
bd6t,44,1,1,0.4559,TRUE,accuracy
bd6t,45,1,1,0.4064,TRUE,accuracy
bd6t,46,1,1,0.5741,TRUE,speed
bd6t,47,1,1,0.3116,TRUE,speed
bd6t,48,2,2,0.4492,TRUE,accuracy
bd6t,49,1,1,0.451,TRUE,neutral
bd6t,50,2,2,0.3521,TRUE,neutral
bd6t,51,1,1,0.4005,TRUE,neutral
bd6t,52,2,2,0.3507,TRUE,neutral
bd6t,53,1,1,0.3803,TRUE,speed
bd6t,54,2,2,0.3556,TRUE,neutral
bd6t,55,2,2,0.4361,TRUE,neutral
bd6t,56,1,1,0.3899,TRUE,speed
bd6t,57,1,2,0.4283,FALSE,neutral
bd6t,58,1,1,0.4307,TRUE,speed
bd6t,59,1,1,0.4009,TRUE,neutral
bd6t,60,1,1,0.4582,TRUE,accuracy
bd6t,61,2,2,0.4672,TRUE,accuracy
bd6t,62,1,1,0.4215,TRUE,accuracy
bd6t,63,2,2,0.4938,TRUE,accuracy
bd6t,64,2,2,0.4024,TRUE,speed
bd6t,65,1,1,0.5468,TRUE,neutral
bd6t,66,1,1,0.3988,TRUE,accuracy
bd6t,67,1,1,0.519,TRUE,accuracy
bd6t,68,2,2,0.6068,TRUE,speed
bd6t,69,2,2,0.4194,TRUE,speed
bd6t,70,2,1,0.6817,FALSE,neutral
bd6t,71,1,1,0.3862,TRUE,accuracy
bd6t,72,1,1,0.5306,TRUE,speed
bd6t,73,2,2,0.4698,TRUE,neutral
bd6t,74,2,2,0.4364,TRUE,neutral
bd6t,75,1,1,0.2669,TRUE,speed
bd6t,76,2,1,0.4883,FALSE,speed
bd6t,77,2,2,0.6092,TRUE,accuracy
bd6t,78,1,1,0.3576,TRUE,neutral
bd6t,79,1,1,0.3695,TRUE,neutral
bd6t,80,1,2,0.2953,FALSE,speed
bd6t,81,1,1,0.3595,TRUE,accuracy
bd6t,82,2,1,0.3233,FALSE,accuracy
bd6t,83,2,1,0.389,FALSE,accuracy
bd6t,84,2,2,0.4244,TRUE,speed
bd6t,85,1,1,0.3993,TRUE,accuracy
bd6t,86,1,1,0.3839,TRUE,speed
bd6t,87,2,1,0.3243,FALSE,neutral
bd6t,88,1,2,0.6489,FALSE,speed
bd6t,89,2,2,0.3278,TRUE,speed
bd6t,90,1,1,0.3765,TRUE,accuracy
bd6t,91,1,2,0.4178,FALSE,accuracy
bd6t,92,2,1,0.3586,FALSE,accuracy
bd6t,93,1,1,0.4048,TRUE,speed
bd6t,94,1,1,0.3446,TRUE,speed
bd6t,95,2,2,0.3176,TRUE,neutral
bd6t,96,2,2,0.5671,TRUE,accuracy
bd6t,97,2,2,0.5295,TRUE,speed
bd6t,98,2,2,0.41,TRUE,neutral
bd6t,99,1,1,0.2928,TRUE,speed
bd6t,100,2,1,0.3106,FALSE,speed
bd6t,101,1,1,0.3898,TRUE,neutral
bd6t,102,1,1,0.4499,TRUE,neutral
bd6t,103,1,1,0.5157,TRUE,accuracy
bd6t,104,1,2,0.3256,FALSE,speed
bd6t,105,1,1,0.4466,TRUE,accuracy
bd6t,106,1,2,0.3818,FALSE,neutral
bd6t,107,2,2,0.4421,TRUE,speed
bd6t,108,2,2,0.4467,TRUE,neutral
bd6t,109,1,2,0.3954,FALSE,neutral
bd6t,110,1,1,0.3706,TRUE,neutral
bd6t,112,1,1,0.2692,TRUE,speed
bd6t,113,2,2,0.4232,TRUE,neutral
bd6t,114,2,2,0.7127,TRUE,neutral
bd6t,115,2,2,0.3833,TRUE,neutral
bd6t,116,1,1,0.4427,TRUE,accuracy
bd6t,117,1,1,0.4573,TRUE,accuracy
bd6t,118,1,2,0.3477,FALSE,speed
bd6t,119,2,2,0.4154,TRUE,speed
bd6t,120,2,2,0.4935,TRUE,neutral
bd6t,121,1,1,0.4381,TRUE,neutral
bd6t,122,2,2,0.37,TRUE,neutral
bd6t,123,2,2,0.46,TRUE,neutral
bd6t,124,2,1,0.4442,FALSE,neutral
bd6t,125,2,1,0.4058,FALSE,speed
bd6t,126,2,1,0.6255,FALSE,accuracy
bd6t,127,1,1,0.4715,TRUE,neutral
bd6t,128,2,2,0.5277,TRUE,accuracy
bd6t,129,1,1,0.3947,TRUE,speed
bd6t,130,1,1,0.4108,TRUE,speed
bd6t,131,1,1,0.4353,TRUE,accuracy
bd6t,132,2,2,0.3123,TRUE,speed
bd6t,133,1,1,0.445,TRUE,accuracy
bd6t,134,1,2,0.3425,FALSE,speed
bd6t,135,2,2,0.5671,TRUE,accuracy
bd6t,136,2,2,0.4183,TRUE,speed
bd6t,137,2,1,0.4544,FALSE,neutral
bd6t,138,1,1,0.3001,TRUE,speed
bd6t,139,2,2,0.4008,TRUE,speed
bd6t,140,2,2,0.5554,TRUE,accuracy
bd6t,141,2,2,0.406,TRUE,accuracy
bd6t,142,1,1,0.3486,TRUE,speed
bd6t,143,2,2,0.3832,TRUE,accuracy
bd6t,144,2,2,0.326,TRUE,speed
bd6t,145,2,1,0.4569,FALSE,accuracy
bd6t,146,1,1,0.4625,TRUE,accuracy
bd6t,147,2,2,0.365,TRUE,neutral
bd6t,148,1,1,0.4529,TRUE,neutral
bd6t,149,2,2,0.4613,TRUE,accuracy
bd6t,150,1,1,0.2952,TRUE,speed
bd6t,151,1,1,0.3636,TRUE,neutral
bd6t,152,2,1,0.3298,FALSE,speed
bd6t,153,1,1,0.4157,TRUE,accuracy
bd6t,154,2,2,0.337,TRUE,speed
bd6t,155,2,1,0.3721,FALSE,speed
bd6t,156,2,2,0.3312,TRUE,speed
bd6t,157,2,2,0.5102,TRUE,neutral
bd6t,158,2,1,0.4857,FALSE,speed
bd6t,159,1,1,0.6861,TRUE,neutral
bd6t,160,1,1,0.592,TRUE,accuracy
bd6t,161,2,2,0.4423,TRUE,speed
bd6t,162,1,1,0.4199,TRUE,neutral
bd6t,163,1,2,0.3705,FALSE,accuracy
bd6t,164,2,2,0.4982,TRUE,neutral
bd6t,165,2,2,0.472,TRUE,neutral
bd6t,166,2,2,0.5107,TRUE,neutral
bd6t,167,2,2,0.4144,TRUE,speed
bd6t,168,2,2,0.3145,TRUE,speed
bd6t,169,2,2,0.3414,TRUE,neutral
bd6t,170,2,2,0.4005,TRUE,speed
bd6t,171,2,2,0.4307,TRUE,neutral
bd6t,172,1,2,0.308,FALSE,speed
bd6t,173,1,1,0.4246,TRUE,accuracy
bd6t,174,1,1,0.3931,TRUE,speed
bd6t,175,1,1,0.3752,TRUE,accuracy
bd6t,176,2,2,0.4762,TRUE,accuracy
bd6t,177,1,1,0.4106,TRUE,neutral
bd6t,178,2,2,0.3438,TRUE,speed
bd6t,179,1,1,0.4785,TRUE,neutral
bd6t,180,1,1,0.6097,TRUE,neutral
bd6t,181,2,2,0.365,TRUE,neutral
bd6t,182,1,1,0.3874,TRUE,speed
bd6t,183,2,2,0.2592,TRUE,speed
bd6t,184,2,2,0.3996,TRUE,neutral
bd6t,185,1,1,0.4573,TRUE,neutral
bd6t,186,1,2,0.3922,FALSE,speed
bd6t,187,2,2,0.4571,TRUE,accuracy
bd6t,188,2,2,0.3295,TRUE,speed
bd6t,189,2,2,0.4716,TRUE,neutral
bd6t,190,2,1,0.4759,FALSE,speed
bd6t,191,1,1,0.4487,TRUE,accuracy
bd6t,192,1,1,0.4516,TRUE,neutral
bd6t,193,2,2,0.5312,TRUE,accuracy
bd6t,194,1,1,0.3636,TRUE,speed
bd6t,195,2,2,0.3901,TRUE,neutral
bd6t,196,2,2,0.5225,TRUE,accuracy
bd6t,197,1,2,0.3824,FALSE,neutral
bd6t,198,1,1,0.3775,TRUE,speed
bd6t,199,2,2,0.4044,TRUE,neutral
bd6t,200,2,2,0.3766,TRUE,accuracy
bd6t,201,1,1,0.4439,TRUE,neutral
bd6t,202,2,1,0.3397,FALSE,neutral
bd6t,203,1,1,0.4266,TRUE,speed
bd6t,204,1,1,0.37,TRUE,speed
bd6t,205,2,2,0.389,TRUE,neutral
bd6t,206,1,1,0.332,TRUE,speed
bd6t,207,1,1,0.3166,TRUE,speed
bd6t,208,1,1,0.4381,TRUE,speed
bd6t,209,1,2,0.3155,FALSE,neutral
bd6t,210,1,1,0.3304,TRUE,speed
bd6t,211,2,2,0.5822,TRUE,neutral
bd6t,212,2,2,0.4009,TRUE,accuracy
bd6t,213,1,1,0.4631,TRUE,neutral
bd6t,214,1,1,0.3746,TRUE,speed
bd6t,215,1,1,0.4253,TRUE,neutral
bd6t,216,2,1,0.4294,FALSE,neutral
bd6t,217,1,2,0.5113,FALSE,neutral
bd6t,218,1,2,0.3559,FALSE,speed
bd6t,219,2,2,0.5343,TRUE,accuracy
bd6t,220,2,2,0.3257,TRUE,speed
bd6t,221,1,1,0.4795,TRUE,neutral
bd6t,222,1,1,0.5549,TRUE,speed
bd6t,223,1,1,0.6281,TRUE,neutral
bd6t,224,2,1,0.3447,FALSE,accuracy
bd6t,225,1,1,0.3116,TRUE,speed
bd6t,226,1,1,0.3971,TRUE,accuracy
bd6t,227,1,1,0.4784,TRUE,accuracy
bd6t,228,2,2,0.3544,TRUE,speed
bd6t,229,1,1,0.3926,TRUE,neutral
bd6t,230,1,1,0.3504,TRUE,speed
bd6t,231,1,1,0.3756,TRUE,speed
bd6t,232,2,2,0.4813,TRUE,neutral
bd6t,233,2,2,0.3873,TRUE,neutral
bd6t,234,1,1,0.3908,TRUE,speed
bd6t,235,1,1,0.7007,TRUE,accuracy
bd6t,236,2,2,0.6271,TRUE,accuracy
bd6t,237,2,2,0.4208,TRUE,speed
bd6t,238,2,1,0.5986,FALSE,neutral
bd6t,239,2,2,0.6411,TRUE,neutral
bd6t,240,2,2,0.3832,TRUE,speed
bd6t,241,2,2,0.4102,TRUE,speed
bd6t,242,2,2,0.4337,TRUE,neutral
bd6t,243,2,2,0.5031,TRUE,accuracy
bd6t,244,2,2,0.3991,TRUE,speed
bd6t,245,2,2,0.4388,TRUE,accuracy
bd6t,246,2,2,0.4188,TRUE,neutral
bd6t,247,1,1,0.4292,TRUE,neutral
bd6t,248,1,1,0.5996,TRUE,accuracy
bd6t,249,1,1,0.3623,TRUE,speed
bd6t,250,1,1,0.3078,TRUE,speed
bd6t,251,1,1,0.6561,TRUE,accuracy
bd6t,252,2,2,0.4808,TRUE,neutral
bd6t,253,2,2,0.412,TRUE,neutral
bd6t,254,1,1,0.5072,TRUE,accuracy
bd6t,255,2,2,0.443,TRUE,speed
bd6t,256,2,2,0.3922,TRUE,accuracy
bd6t,257,1,1,0.5243,TRUE,accuracy
bd6t,258,2,2,0.4382,TRUE,accuracy
bd6t,259,2,2,0.4708,TRUE,accuracy
bd6t,260,2,1,0.3568,FALSE,speed
bd6t,261,2,2,0.5495,TRUE,accuracy
bd6t,262,1,1,0.4211,TRUE,accuracy
bd6t,263,2,2,0.4674,TRUE,speed
bd6t,264,1,2,0.4009,FALSE,speed
bd6t,265,1,2,0.4416,FALSE,speed
bd6t,266,1,1,0.6069,TRUE,accuracy
bd6t,267,1,1,0.4363,TRUE,neutral
bd6t,268,2,2,0.5785,TRUE,accuracy
bd6t,269,1,1,0.4451,TRUE,accuracy
bd6t,270,1,1,0.5606,TRUE,accuracy
bd6t,271,1,1,0.333,TRUE,speed
bd6t,272,1,1,0.426,TRUE,neutral
bd6t,273,2,2,0.4759,TRUE,neutral
bd6t,274,1,1,0.4933,TRUE,accuracy
bd6t,275,2,2,0.4806,TRUE,neutral
bd6t,276,2,2,0.4814,TRUE,neutral
bd6t,277,1,2,0.368,FALSE,neutral
bd6t,278,1,1,0.5627,TRUE,accuracy
bd6t,279,2,2,0.4295,TRUE,speed
bd6t,280,1,1,0.5243,TRUE,neutral
bd6t,281,1,1,0.3718,TRUE,speed
bd6t,282,1,1,0.4781,TRUE,accuracy
bd6t,283,2,2,0.4359,TRUE,accuracy
bd6t,284,2,2,0.6157,TRUE,accuracy
bd6t,285,1,1,0.6109,TRUE,accuracy
bd6t,286,1,1,0.6013,TRUE,neutral
bd6t,287,2,2,0.5256,TRUE,neutral
bd6t,288,2,1,0.4029,FALSE,speed
bd6t,289,2,2,0.3717,TRUE,neutral
bd6t,290,1,2,0.2991,FALSE,speed
bd6t,291,1,1,0.4217,TRUE,accuracy
bd6t,292,2,2,0.6136,TRUE,accuracy
bd6t,293,2,2,0.4402,TRUE,neutral
bd6t,294,2,2,0.5342,TRUE,accuracy
bd6t,295,2,1,0.5398,FALSE,accuracy
bd6t,296,2,2,0.5986,TRUE,speed
bd6t,297,1,1,0.485,TRUE,neutral
bd6t,298,2,2,0.3868,TRUE,speed
bd6t,299,1,1,0.38,TRUE,neutral
bd6t,300,1,1,0.2554,TRUE,speed
bd6t,301,2,1,0.3049,FALSE,speed
bd6t,302,1,2,0.3181,FALSE,speed
bd6t,303,2,2,0.3938,TRUE,speed
bd6t,304,1,2,0.5117,FALSE,speed
bd6t,305,2,2,0.4498,TRUE,neutral
bd6t,306,1,2,0.4248,FALSE,neutral
bd6t,307,1,1,0.6138,TRUE,accuracy
bd6t,308,2,2,0.5702,TRUE,neutral
bd6t,309,2,2,0.3793,TRUE,speed
bd6t,310,2,2,0.6411,TRUE,neutral
bd6t,311,1,1,0.3774,TRUE,neutral
bd6t,312,2,2,0.3447,TRUE,speed
bd6t,313,2,2,0.4379,TRUE,neutral
bd6t,314,1,1,0.3085,TRUE,speed
bd6t,315,1,1,0.4621,TRUE,accuracy
bd6t,316,2,2,0.4055,TRUE,accuracy
bd6t,317,2,2,0.8606,TRUE,neutral
bd6t,318,2,2,0.4206,TRUE,accuracy
bd6t,319,2,2,0.4278,TRUE,accuracy
bd6t,320,1,2,0.3611,FALSE,speed
bd6t,321,1,2,0.5946,FALSE,neutral
bd6t,322,2,2,0.4776,TRUE,speed
bd6t,323,1,1,0.5614,TRUE,speed
bd6t,324,2,2,0.4343,TRUE,neutral
bd6t,325,1,1,0.3262,TRUE,speed
bd6t,326,2,2,0.3965,TRUE,speed
bd6t,327,1,1,0.4516,TRUE,neutral
bd6t,328,2,2,0.3709,TRUE,speed
bd6t,329,2,2,0.4727,TRUE,speed
bd6t,330,1,1,0.4079,TRUE,speed
bd6t,331,1,1,0.7559,TRUE,accuracy
bd6t,332,1,1,0.4679,TRUE,neutral
bd6t,333,1,1,0.472,TRUE,neutral
bd6t,334,2,2,0.9331,TRUE,accuracy
bd6t,335,2,2,0.6284,TRUE,accuracy
bd6t,336,1,1,0.5967,TRUE,neutral
bd6t,337,1,1,0.549,TRUE,neutral
bd6t,338,2,2,0.548,TRUE,accuracy
bd6t,339,2,2,0.6872,TRUE,neutral
bd6t,340,2,2,0.6284,TRUE,accuracy
bd6t,341,1,1,0.6442,TRUE,neutral
bd6t,342,2,2,0.6261,TRUE,accuracy
bd6t,343,1,1,0.7208,TRUE,accuracy
bd6t,344,2,2,0.5293,TRUE,neutral
bd6t,345,2,2,0.3732,TRUE,speed
bd6t,346,2,2,0.3694,TRUE,speed
bd6t,347,2,1,0.4596,FALSE,neutral
bd6t,348,1,1,0.4935,TRUE,speed
bd6t,349,1,1,0.4226,TRUE,neutral
bd6t,350,2,2,0.6214,TRUE,accuracy
bd6t,351,1,1,0.4346,TRUE,speed
bd6t,352,1,1,0.4192,TRUE,neutral
bd6t,353,2,2,0.605,TRUE,accuracy
bd6t,354,1,1,0.3962,TRUE,neutral
bd6t,355,1,1,0.5499,TRUE,accuracy
bd6t,356,2,2,0.4322,TRUE,speed
bd6t,357,1,1,0.4945,TRUE,accuracy
bd6t,358,2,2,0.6273,TRUE,accuracy
bd6t,359,2,2,0.661,TRUE,accuracy
bd6t,360,1,1,0.5941,TRUE,neutral
bd6t,361,1,1,0.4888,TRUE,accuracy
bd6t,362,2,2,0.8982,TRUE,accuracy
bd6t,363,2,2,0.682,TRUE,neutral
bd6t,364,2,2,0.7342,TRUE,accuracy
bd6t,365,2,1,0.3748,FALSE,speed
bd6t,366,2,1,0.3058,FALSE,speed
bd6t,367,2,2,0.599,TRUE,accuracy
bd6t,368,2,2,0.6256,TRUE,neutral
bd6t,369,1,2,0.5797,FALSE,accuracy
bd6t,370,1,2,1.2414,FALSE,accuracy
bd6t,371,2,2,1.117,TRUE,accuracy
bd6t,372,2,2,0.6594,TRUE,accuracy
bd6t,373,1,1,0.8848,TRUE,neutral
bd6t,374,2,1,0.3685,FALSE,speed
bd6t,375,2,1,0.356,FALSE,speed
bd6t,376,1,1,0.6057,TRUE,neutral
bd6t,377,1,1,0.5576,TRUE,accuracy
bd6t,378,2,2,0.4968,TRUE,accuracy
bd6t,379,1,1,0.3989,TRUE,speed
bd6t,380,2,2,0.8104,TRUE,accuracy
bd6t,381,2,2,0.69,TRUE,neutral
bd6t,382,2,2,0.4082,TRUE,speed
bd6t,383,2,2,0.4292,TRUE,accuracy
bd6t,384,1,1,0.4006,TRUE,speed
bd6t,385,1,1,0.4275,TRUE,accuracy
bd6t,386,2,2,0.4658,TRUE,accuracy
bd6t,387,1,1,0.4329,TRUE,neutral
bd6t,388,2,1,0.2827,FALSE,speed
bd6t,389,1,1,0.3964,TRUE,accuracy
bd6t,390,2,2,0.4615,TRUE,accuracy
bd6t,391,1,1,0.7799,TRUE,neutral
bd6t,392,1,1,0.4814,TRUE,accuracy
bd6t,393,2,2,0.4364,TRUE,accuracy
bd6t,394,2,1,0.5017,FALSE,neutral
bd6t,395,1,1,0.4556,TRUE,accuracy
bd6t,396,2,1,0.2955,FALSE,speed
bd6t,397,1,1,0.481,TRUE,neutral
bd6t,398,2,2,0.482,TRUE,accuracy
bd6t,399,1,1,0.4562,TRUE,speed
bd6t,400,1,1,0.4078,TRUE,neutral
bd6t,401,2,2,0.5935,TRUE,neutral
bd6t,402,1,1,0.3823,TRUE,speed
bd6t,403,1,1,0.3881,TRUE,accuracy
bd6t,404,1,2,0.3014,FALSE,speed
bd6t,405,1,1,0.3713,TRUE,neutral
bd6t,406,1,2,0.6476,FALSE,accuracy
bd6t,407,2,2,0.6845,TRUE,accuracy
bd6t,408,1,2,0.7068,FALSE,neutral
bd6t,409,2,2,0.5329,TRUE,accuracy
bd6t,410,1,1,0.4016,TRUE,speed
bd6t,411,1,1,0.6143,TRUE,neutral
bd6t,412,1,1,0.6262,TRUE,neutral
bd6t,413,2,2,0.5625,TRUE,accuracy
bd6t,414,1,1,0.6937,TRUE,accuracy
bd6t,415,2,2,0.613,TRUE,accuracy
bd6t,416,2,2,0.5518,TRUE,accuracy
bd6t,417,2,2,0.6586,TRUE,neutral
bd6t,418,2,2,0.5103,TRUE,neutral
bd6t,419,2,2,0.6004,TRUE,accuracy
bd6t,420,1,1,0.7434,TRUE,neutral
bd6t,421,1,1,0.4402,TRUE,accuracy
bd6t,422,1,1,0.7656,TRUE,accuracy
bd6t,423,2,2,0.4139,TRUE,speed
bd6t,424,1,1,0.5722,TRUE,neutral
bd6t,425,1,1,0.4322,TRUE,accuracy
bd6t,426,1,1,0.3166,TRUE,speed
bd6t,427,2,2,0.5146,TRUE,accuracy
bd6t,428,2,1,0.5266,FALSE,speed
bd6t,429,2,1,0.4281,FALSE,accuracy
bd6t,430,1,1,0.3569,TRUE,speed
bd6t,431,1,1,0.4686,TRUE,speed
bd6t,432,2,2,0.4239,TRUE,neutral
bd6t,433,1,1,0.3565,TRUE,speed
bd6t,434,1,1,0.5245,TRUE,accuracy
bd6t,435,2,2,0.5004,TRUE,neutral
bd6t,436,2,2,0.6016,TRUE,neutral
bd6t,437,2,2,0.5166,TRUE,neutral
bd6t,438,2,2,0.5411,TRUE,accuracy
bd6t,439,1,1,0.462,TRUE,accuracy
bd6t,440,1,1,0.4932,TRUE,accuracy
bd6t,441,2,2,0.6032,TRUE,neutral
bd6t,442,2,2,0.774,TRUE,accuracy
bd6t,443,1,1,0.4516,TRUE,speed
bd6t,444,2,1,0.5898,FALSE,accuracy
bd6t,445,2,2,0.8061,TRUE,neutral
bd6t,446,1,2,0.4156,FALSE,neutral
bd6t,447,2,2,0.5401,TRUE,neutral
bd6t,448,2,2,0.9991,TRUE,accuracy
bd6t,449,2,2,0.7156,TRUE,accuracy
bd6t,450,2,2,0.6068,TRUE,accuracy
bd6t,451,1,1,0.6643,TRUE,accuracy
bd6t,452,2,2,0.5067,TRUE,neutral
bd6t,453,2,1,0.4765,FALSE,speed
bd6t,454,1,1,0.4938,TRUE,accuracy
bd6t,455,1,1,0.4718,TRUE,neutral
bd6t,456,2,2,0.5399,TRUE,neutral
bd6t,457,2,2,0.338,TRUE,speed
bd6t,458,1,1,0.5311,TRUE,neutral
bd6t,459,2,2,0.7276,TRUE,accuracy
bd6t,460,1,1,0.3581,TRUE,neutral
bd6t,461,2,2,0.3599,TRUE,speed
bd6t,462,1,1,0.6034,TRUE,accuracy
bd6t,463,1,1,0.4053,TRUE,accuracy
bd6t,464,1,2,0.308,FALSE,speed
bd6t,465,2,2,0.551,TRUE,accuracy
bd6t,466,1,1,0.4317,TRUE,neutral
bd6t,467,1,1,0.5001,TRUE,neutral
bd6t,468,1,1,0.8209,TRUE,accuracy
bd6t,469,2,1,0.3072,FALSE,speed
bd6t,470,1,1,0.5176,TRUE,neutral
bd6t,471,2,2,0.5549,TRUE,accuracy
bd6t,472,1,1,0.4279,TRUE,speed
bd6t,473,1,1,0.3444,TRUE,speed
bd6t,474,1,1,0.3695,TRUE,speed
bd6t,475,2,1,0.3569,FALSE,neutral
bd6t,476,1,1,0.3084,TRUE,speed
bd6t,477,2,2,0.4415,TRUE,neutral
bd6t,478,1,1,0.4597,TRUE,neutral
bd6t,479,2,2,0.4265,TRUE,accuracy
bd6t,480,2,2,0.5639,TRUE,accuracy
bd6t,481,2,2,0.3954,TRUE,speed
bd6t,482,1,1,0.4682,TRUE,neutral
bd6t,483,2,2,0.4156,TRUE,neutral
bd6t,484,1,1,0.3936,TRUE,speed
bd6t,485,1,1,0.4865,TRUE,neutral
bd6t,486,2,2,0.3519,TRUE,speed
bd6t,487,1,1,0.35,TRUE,speed
bd6t,488,1,1,0.4007,TRUE,speed
bd6t,489,2,2,0.4269,TRUE,neutral
bd6t,490,2,1,0.3514,FALSE,speed
bd6t,491,1,1,0.5956,TRUE,accuracy
bd6t,492,2,1,0.3306,FALSE,speed
bd6t,493,1,1,0.4083,TRUE,speed
bd6t,494,2,2,0.3891,TRUE,neutral
bd6t,495,2,2,0.3624,TRUE,speed
bd6t,496,1,1,0.3236,TRUE,speed
bd6t,497,2,2,0.486,TRUE,accuracy
bd6t,498,2,2,0.6112,TRUE,accuracy
bd6t,499,1,1,0.7307,TRUE,accuracy
bd6t,500,1,1,0.3234,TRUE,speed
bd6t,501,1,1,0.3889,TRUE,speed
bd6t,502,2,2,0.311,TRUE,speed
bd6t,503,1,1,0.7346,TRUE,neutral
bd6t,504,1,2,0.3498,FALSE,speed
bd6t,505,1,1,0.3766,TRUE,speed
bd6t,506,1,1,0.4022,TRUE,neutral
bd6t,507,2,1,0.2996,FALSE,speed
bd6t,508,2,1,0.3559,FALSE,speed
bd6t,509,2,2,0.3575,TRUE,speed
bd6t,510,2,2,0.5303,TRUE,accuracy
bd6t,511,2,1,0.349,FALSE,speed
bd6t,512,2,1,0.3311,FALSE,speed
bd6t,513,1,1,0.4727,TRUE,neutral
bd6t,514,1,1,0.581,TRUE,accuracy
bd6t,515,1,1,0.3493,TRUE,speed
bd6t,516,1,1,0.3801,TRUE,accuracy
bd6t,517,2,2,0.4431,TRUE,accuracy
bd6t,518,2,2,0.5289,TRUE,neutral
bd6t,519,1,1,0.5394,TRUE,accuracy
bd6t,520,1,1,0.4887,TRUE,speed
bd6t,521,2,2,0.5587,TRUE,neutral
bd6t,522,1,1,0.5893,TRUE,accuracy
bd6t,523,2,2,0.3459,TRUE,speed
bd6t,524,2,2,0.3643,TRUE,speed
bd6t,525,2,2,0.7633,TRUE,accuracy
bd6t,526,1,1,0.8889,TRUE,accuracy
bd6t,527,1,1,0.3891,TRUE,speed
bd6t,528,2,2,0.3938,TRUE,speed
bd6t,529,2,2,0.4064,TRUE,neutral
bd6t,530,1,1,0.3298,TRUE,speed
bd6t,531,2,1,0.4222,FALSE,speed
bd6t,532,2,2,0.3344,TRUE,speed
bd6t,533,1,1,0.5463,TRUE,accuracy
bd6t,534,1,1,0.736,TRUE,accuracy
bd6t,535,1,1,0.7398,TRUE,neutral
bd6t,536,2,2,0.617,TRUE,accuracy
bd6t,537,1,1,0.3655,TRUE,speed
bd6t,538,2,2,0.3358,TRUE,speed
bd6t,539,2,2,0.7163,TRUE,accuracy
bd6t,540,1,1,0.7724,TRUE,accuracy
bd6t,541,1,1,0.5189,TRUE,speed
bd6t,542,1,1,0.3543,TRUE,speed
bd6t,543,1,1,0.3864,TRUE,speed
bd6t,544,1,2,0.4532,FALSE,accuracy
bd6t,545,1,1,0.358,TRUE,speed
bd6t,546,2,2,0.8208,TRUE,accuracy
bd6t,547,2,2,0.6003,TRUE,accuracy
bd6t,548,2,1,0.3542,FALSE,speed
bd6t,549,2,2,0.8273,TRUE,neutral
bd6t,550,1,1,0.4651,TRUE,accuracy
bd6t,551,2,2,0.4652,TRUE,neutral
bd6t,552,2,2,0.4422,TRUE,neutral
bd6t,553,2,2,0.4181,TRUE,neutral
bd6t,554,1,1,0.4869,TRUE,speed
bd6t,555,2,2,0.374,TRUE,speed
bd6t,556,2,2,0.4002,TRUE,speed
bd6t,557,2,2,0.6217,TRUE,accuracy
bd6t,558,1,1,0.3091,TRUE,speed
bd6t,559,1,1,0.6584,TRUE,accuracy
bd6t,560,1,1,0.599,TRUE,neutral
bd6t,561,1,1,0.5402,TRUE,neutral
bd6t,562,1,1,0.4322,TRUE,speed
bd6t,563,2,2,0.3418,TRUE,speed
bd6t,564,1,1,0.477,TRUE,neutral
bd6t,565,2,2,0.3712,TRUE,accuracy
bd6t,566,2,1,0.6636,FALSE,neutral
bd6t,567,2,1,0.292,FALSE,speed
bd6t,568,1,1,0.5959,TRUE,accuracy
bd6t,569,1,1,0.5941,TRUE,neutral
bd6t,570,2,2,0.4943,TRUE,neutral
bd6t,571,2,1,0.4796,FALSE,accuracy
bd6t,572,2,2,0.3813,TRUE,speed
bd6t,573,2,2,0.3048,TRUE,speed
bd6t,574,1,1,0.4526,TRUE,neutral
bd6t,575,1,1,0.3028,TRUE,speed
bd6t,576,2,2,0.3975,TRUE,neutral
bd6t,577,1,2,0.3759,FALSE,neutral
bd6t,578,2,2,0.5645,TRUE,speed
bd6t,579,2,2,0.3639,TRUE,neutral
bd6t,580,1,1,0.4287,TRUE,accuracy
bd6t,581,1,1,0.3903,TRUE,neutral
bd6t,582,1,1,0.3143,TRUE,speed
bd6t,583,1,1,0.4826,TRUE,neutral
bd6t,584,2,1,0.32,FALSE,speed
bd6t,585,1,1,0.3982,TRUE,neutral
bd6t,586,2,2,0.3251,TRUE,speed
bd6t,587,1,1,0.7264,TRUE,accuracy
bd6t,588,1,1,0.6379,TRUE,neutral
bd6t,589,2,2,0.4433,TRUE,speed
bd6t,590,1,1,0.4427,TRUE,neutral
bd6t,591,1,1,0.5754,TRUE,neutral
bd6t,592,1,1,0.4095,TRUE,neutral
bd6t,593,1,1,0.6051,TRUE,accuracy
bd6t,594,2,2,0.3273,TRUE,speed
bd6t,595,1,1,0.6837,TRUE,neutral
bd6t,596,2,2,0.6414,TRUE,accuracy
bd6t,597,1,2,0.5006,FALSE,accuracy
bd6t,598,1,1,0.6913,TRUE,neutral
bd6t,599,1,1,0.6204,TRUE,accuracy
bd6t,600,1,1,0.336,TRUE,speed
bd6t,601,1,2,0.3424,FALSE,speed
bd6t,602,2,2,0.4372,TRUE,speed
bd6t,603,1,1,0.3564,TRUE,speed
bd6t,604,1,1,0.5578,TRUE,accuracy
bd6t,605,1,2,0.3459,FALSE,speed
bd6t,606,1,1,0.5687,TRUE,neutral
bd6t,607,1,1,0.3972,TRUE,neutral
bd6t,608,1,1,0.4808,TRUE,neutral
bd6t,609,2,2,0.4918,TRUE,accuracy
bd6t,610,1,1,0.379,TRUE,accuracy
bd6t,611,1,1,0.5289,TRUE,accuracy
bd6t,612,2,2,0.6469,TRUE,accuracy
bd6t,613,1,1,0.4258,TRUE,neutral
bd6t,614,2,2,0.4208,TRUE,speed
bd6t,615,2,2,0.42,TRUE,neutral
bd6t,616,2,1,0.4964,FALSE,accuracy
bd6t,617,2,2,0.5285,TRUE,accuracy
bd6t,618,2,2,0.6644,TRUE,accuracy
bd6t,619,1,1,0.4463,TRUE,neutral
bd6t,620,2,2,0.4877,TRUE,neutral
bd6t,621,2,2,0.5043,TRUE,neutral
bd6t,622,2,2,0.3517,TRUE,speed
bd6t,623,2,2,0.4904,TRUE,neutral
bd6t,624,1,2,0.6398,FALSE,accuracy
bd6t,625,1,1,1.2117,TRUE,accuracy
bd6t,626,2,2,0.4637,TRUE,neutral
bd6t,627,2,2,0.5936,TRUE,neutral
bd6t,628,1,1,1.1775,TRUE,accuracy
bd6t,629,1,1,0.365,TRUE,speed
bd6t,630,2,1,0.3779,FALSE,speed
bd6t,631,2,2,0.6841,TRUE,accuracy
bd6t,632,2,2,0.6659,TRUE,neutral
bd6t,633,1,1,0.5383,TRUE,accuracy
bd6t,634,1,1,0.5801,TRUE,neutral
bd6t,635,2,2,0.786,TRUE,neutral
bd6t,636,2,2,0.4518,TRUE,neutral
bd6t,637,1,1,0.3443,TRUE,speed
bd6t,638,2,1,0.3274,FALSE,speed
bd6t,639,1,1,0.6363,TRUE,accuracy
bd6t,640,1,1,0.3673,TRUE,speed
bd6t,641,1,1,0.5427,TRUE,neutral
bd6t,642,1,1,0.6565,TRUE,neutral
bd6t,643,2,2,0.5355,TRUE,neutral
bd6t,644,2,2,0.5496,TRUE,speed
bd6t,645,1,1,0.441,TRUE,neutral
bd6t,646,1,1,0.5436,TRUE,neutral
bd6t,647,1,1,0.4838,TRUE,accuracy
bd6t,648,2,1,0.671,FALSE,accuracy
bd6t,649,2,2,0.386,TRUE,speed
bd6t,650,2,2,0.8413,TRUE,accuracy
bd6t,651,1,2,0.3786,FALSE,speed
bd6t,652,1,1,0.6891,TRUE,accuracy
bd6t,653,2,2,0.4324,TRUE,neutral
bd6t,654,1,1,0.5751,TRUE,neutral
bd6t,655,1,1,0.5558,TRUE,neutral
bd6t,656,1,1,0.3013,TRUE,speed
bd6t,657,1,2,0.3228,FALSE,speed
bd6t,658,2,1,0.3163,FALSE,speed
bd6t,659,2,1,0.5098,FALSE,speed
bd6t,660,2,1,0.3468,FALSE,speed
bd6t,661,2,2,0.3227,TRUE,speed
bd6t,662,1,1,0.4613,TRUE,accuracy
bd6t,663,1,1,0.7383,TRUE,accuracy
bd6t,664,1,1,0.5937,TRUE,neutral
bd6t,665,1,1,0.6692,TRUE,neutral
bd6t,666,2,2,0.5486,TRUE,neutral
bd6t,667,2,2,0.3344,TRUE,speed
bd6t,668,2,2,0.3931,TRUE,accuracy
bd6t,669,2,1,0.5669,FALSE,speed
bd6t,670,1,1,0.736,TRUE,accuracy
bd6t,671,1,1,0.647,TRUE,accuracy
bd6t,672,2,2,0.6399,TRUE,accuracy
bd6t,673,1,1,0.616,TRUE,neutral
bd6t,674,1,1,0.5919,TRUE,neutral
bd6t,675,2,1,0.6943,FALSE,neutral
bd6t,676,1,1,0.5031,TRUE,neutral
bd6t,677,1,1,0.7349,TRUE,accuracy
bd6t,678,1,2,0.4546,FALSE,neutral
bd6t,679,2,2,1.396,TRUE,accuracy
bd6t,680,2,2,0.6918,TRUE,accuracy
bd6t,681,1,1,0.3737,TRUE,speed
bd6t,682,1,2,0.3638,FALSE,speed
bd6t,683,1,2,0.3642,FALSE,speed
bd6t,684,1,1,0.3927,TRUE,speed
bd6t,685,1,1,0.4647,TRUE,speed
bd6t,686,1,1,0.455,TRUE,accuracy
bd6t,687,1,1,0.665,TRUE,accuracy
bd6t,688,1,1,0.7474,TRUE,accuracy
bd6t,689,2,2,0.6319,TRUE,accuracy
bd6t,690,1,2,0.3706,FALSE,speed
bd6t,691,2,2,0.8675,TRUE,neutral
bd6t,692,1,1,0.3533,TRUE,speed
bd6t,693,1,1,0.6832,TRUE,neutral
bd6t,694,2,2,1.2593,TRUE,accuracy
bd6t,695,2,1,0.518,FALSE,neutral
bd6t,696,1,1,0.6891,TRUE,neutral
bd6t,697,1,1,0.7495,TRUE,accuracy
bd6t,698,2,2,0.8577,TRUE,accuracy
bd6t,699,2,2,0.7942,TRUE,neutral
bd6t,700,2,2,0.4495,TRUE,neutral
bd6t,701,2,2,0.6078,TRUE,neutral
bd6t,702,1,1,0.4298,TRUE,neutral
bd6t,703,1,1,0.6292,TRUE,neutral
bd6t,704,2,2,0.5692,TRUE,neutral
bd6t,705,2,2,0.481,TRUE,neutral
bd6t,706,2,2,0.4543,TRUE,neutral
bd6t,707,2,2,0.4884,TRUE,accuracy
bd6t,708,1,2,0.3364,FALSE,speed
bd6t,709,1,1,0.4174,TRUE,speed
bd6t,710,1,1,0.4709,TRUE,neutral
bd6t,711,2,2,0.4953,TRUE,neutral
bd6t,712,2,1,0.3619,FALSE,speed
bd6t,713,2,2,0.7394,TRUE,accuracy
bd6t,714,1,1,0.5637,TRUE,accuracy
bd6t,715,1,1,0.5607,TRUE,accuracy
bd6t,716,2,2,0.5809,TRUE,accuracy
bd6t,717,1,2,0.2991,FALSE,speed
bd6t,718,2,2,0.9651,TRUE,accuracy
bd6t,719,1,1,0.3638,TRUE,speed
bd6t,720,1,1,0.5217,TRUE,neutral
bd6t,721,1,1,0.3832,TRUE,neutral
bd6t,722,1,1,0.4987,TRUE,accuracy
bd6t,723,1,1,0.4056,TRUE,accuracy
bd6t,724,1,1,0.574,TRUE,neutral
bd6t,725,1,1,0.4882,TRUE,accuracy
bd6t,726,2,2,0.5981,TRUE,accuracy
bd6t,727,2,2,0.8723,TRUE,accuracy
bd6t,728,1,1,0.57,TRUE,accuracy
bd6t,729,2,1,0.3552,FALSE,speed
bd6t,730,2,2,0.5974,TRUE,accuracy
bd6t,731,1,1,0.5253,TRUE,neutral
bd6t,732,2,2,0.3458,TRUE,speed
bd6t,733,1,1,0.5688,TRUE,neutral
bd6t,734,1,1,0.3213,TRUE,speed
bd6t,735,2,1,0.3581,FALSE,speed
bd6t,736,2,1,0.4652,FALSE,neutral
bd6t,737,1,1,0.7037,TRUE,accuracy
bd6t,738,2,2,0.7292,TRUE,neutral
bd6t,739,1,1,0.4141,TRUE,accuracy
bd6t,740,2,2,0.5534,TRUE,accuracy
bd6t,741,2,2,0.6081,TRUE,accuracy
bd6t,742,1,1,0.4555,TRUE,accuracy
bd6t,743,2,2,0.6057,TRUE,neutral
bd6t,744,2,2,0.5165,TRUE,accuracy
bd6t,745,2,1,0.3627,FALSE,speed
bd6t,746,1,1,0.4046,TRUE,speed
bd6t,747,2,2,0.8067,TRUE,neutral
bd6t,748,1,1,0.4571,TRUE,neutral
bd6t,749,1,1,0.4999,TRUE,accuracy
bd6t,750,1,1,0.419,TRUE,neutral
bd6t,751,2,2,0.5002,TRUE,accuracy
bd6t,752,2,2,0.4299,TRUE,neutral
bd6t,753,1,1,0.4353,TRUE,accuracy
bd6t,754,1,1,0.4332,TRUE,speed
bd6t,755,2,2,0.5785,TRUE,speed
bd6t,756,1,1,0.3432,TRUE,speed
bd6t,757,2,2,0.5345,TRUE,neutral
bd6t,758,1,2,0.3006,FALSE,speed
bd6t,759,2,2,0.4021,TRUE,accuracy
bd6t,760,2,2,0.8695,TRUE,neutral
bd6t,761,2,1,0.7501,FALSE,accuracy
bd6t,762,2,2,0.4585,TRUE,speed
bd6t,763,2,2,0.5992,TRUE,accuracy
bd6t,764,1,1,0.4242,TRUE,neutral
bd6t,765,1,1,0.5259,TRUE,accuracy
bd6t,766,2,1,0.4226,FALSE,speed
bd6t,767,1,1,0.3827,TRUE,speed
bd6t,768,1,1,0.7005,TRUE,accuracy
bd6t,769,1,1,0.369,TRUE,speed
bd6t,770,2,1,0.4089,FALSE,speed
bd6t,771,1,1,0.4931,TRUE,accuracy
bd6t,772,1,2,1.3111,FALSE,accuracy
bd6t,773,2,2,0.4178,TRUE,speed
bd6t,774,1,2,0.387,FALSE,speed
bd6t,775,1,1,0.6909,TRUE,accuracy
bd6t,776,2,2,0.3174,TRUE,speed
bd6t,777,1,1,0.5263,TRUE,neutral
bd6t,778,2,2,0.4613,TRUE,speed
bd6t,779,1,1,0.4818,TRUE,accuracy
bd6t,780,2,2,0.5901,TRUE,speed
bd6t,781,2,2,0.3979,TRUE,accuracy
bd6t,782,1,1,0.3683,TRUE,speed
bd6t,783,2,1,0.3204,FALSE,speed
bd6t,784,1,1,0.517,TRUE,accuracy
bd6t,785,1,1,0.6687,TRUE,accuracy
bd6t,786,1,1,0.7324,TRUE,accuracy
bd6t,787,1,2,0.322,FALSE,speed
bd6t,788,2,2,0.4185,TRUE,accuracy
bd6t,789,1,1,0.5914,TRUE,accuracy
bd6t,790,1,1,0.8088,TRUE,neutral
bd6t,791,2,2,0.3674,TRUE,speed
bd6t,792,2,2,0.6634,TRUE,accuracy
bd6t,793,2,2,0.3979,TRUE,accuracy
bd6t,794,2,2,0.6425,TRUE,speed
bd6t,795,2,1,0.5988,FALSE,speed
bd6t,796,2,2,0.3997,TRUE,speed
bd6t,797,2,2,0.6516,TRUE,accuracy
bd6t,798,1,2,0.2782,FALSE,speed
bd6t,799,1,1,0.5944,TRUE,neutral
bd6t,800,2,2,0.5039,TRUE,neutral
bd6t,801,1,1,0.5649,TRUE,speed
bd6t,802,2,1,0.3033,FALSE,speed
bd6t,803,2,2,0.477,TRUE,accuracy
bd6t,804,1,1,0.5932,TRUE,neutral
bd6t,805,1,1,0.2999,TRUE,speed
bd6t,806,2,2,0.5465,TRUE,neutral
bd6t,807,2,2,0.3652,TRUE,speed
bd6t,808,2,1,0.3287,FALSE,speed
bd6t,809,1,1,0.7885,TRUE,accuracy
bd6t,810,2,2,0.5444,TRUE,neutral
bd6t,811,1,1,0.621,TRUE,neutral
bd6t,812,2,2,0.7935,TRUE,accuracy
bd6t,813,1,1,0.4798,TRUE,accuracy
bd6t,814,2,2,0.4499,TRUE,speed
bd6t,815,2,2,0.3547,TRUE,speed
bd6t,816,2,2,0.4267,TRUE,speed
bd6t,817,1,1,1.1242,TRUE,neutral
bd6t,818,1,1,0.622,TRUE,accuracy
bd6t,819,1,1,0.3148,TRUE,speed
bd6t,820,2,1,0.3464,FALSE,speed
bd6t,821,1,1,0.4781,TRUE,speed
bd6t,822,1,1,1.0226,TRUE,neutral
bd6t,823,1,1,0.3527,TRUE,speed
bd6t,824,2,2,0.5999,TRUE,accuracy
bd6t,825,1,1,0.5418,TRUE,accuracy
bd6t,826,2,2,0.6667,TRUE,accuracy
bd6t,827,2,1,0.5832,FALSE,neutral
bd6t,828,2,2,0.6078,TRUE,neutral
bd6t,829,1,1,0.4967,TRUE,neutral
bd6t,830,2,2,0.4871,TRUE,neutral
bd6t,831,2,1,0.326,FALSE,speed
bd6t,832,1,2,0.2691,FALSE,speed
bd6t,833,2,2,0.7355,TRUE,neutral
bd6t,834,2,1,0.3308,FALSE,speed
bd6t,835,2,2,0.429,TRUE,speed
bd6t,836,1,1,0.6053,TRUE,accuracy
bd6t,837,2,2,0.4285,TRUE,speed
bd6t,838,2,2,0.4423,TRUE,neutral
bd6t,839,1,1,0.5673,TRUE,accuracy
bd6t,840,1,1,0.6719,TRUE,accuracy
bd6t,841,2,1,0.3166,FALSE,speed
bd6t,842,2,2,0.4669,TRUE,neutral
bd6t,843,1,1,0.6642,TRUE,accuracy
bd6t,844,1,1,0.8727,TRUE,accuracy
bd6t,845,1,1,0.5242,TRUE,neutral
bd6t,846,2,1,0.3433,FALSE,speed
bd6t,847,2,2,0.7795,TRUE,accuracy
bd6t,848,2,2,0.4021,TRUE,speed
bd6t,849,2,2,0.6772,TRUE,neutral
bd6t,850,1,1,0.4766,TRUE,neutral
bl1t,1,2,2,0.4553,TRUE,neutral
bl1t,2,2,2,0.521,TRUE,neutral
bl1t,3,1,1,0.4512,TRUE,neutral
bl1t,4,2,2,0.4784,TRUE,accuracy
bl1t,5,2,2,0.43,TRUE,accuracy
bl1t,6,2,2,0.4486,TRUE,accuracy
bl1t,7,1,1,0.3991,TRUE,speed
bl1t,8,1,1,0.3627,TRUE,neutral
bl1t,9,1,1,0.4393,TRUE,accuracy
bl1t,10,2,2,0.5017,TRUE,accuracy
bl1t,11,2,1,0.4283,FALSE,neutral
bl1t,12,1,1,0.4744,TRUE,accuracy
bl1t,13,1,1,0.4015,TRUE,neutral
bl1t,14,2,2,0.4369,TRUE,accuracy
bl1t,15,2,2,0.4188,TRUE,accuracy
bl1t,16,2,2,0.4406,TRUE,accuracy
bl1t,17,2,2,0.4516,TRUE,accuracy
bl1t,18,2,2,0.4439,TRUE,neutral
bl1t,19,2,2,0.372,TRUE,neutral
bl1t,20,2,2,0.4193,TRUE,accuracy
bl1t,21,1,1,0.4695,TRUE,neutral
bl1t,22,1,1,0.5533,TRUE,accuracy
bl1t,23,1,1,0.4175,TRUE,neutral
bl1t,24,2,2,0.3749,TRUE,neutral
bl1t,25,1,1,0.3726,TRUE,neutral
bl1t,26,1,1,0.3887,TRUE,speed
bl1t,27,2,2,0.6874,TRUE,speed
bl1t,28,2,2,0.5212,TRUE,accuracy
bl1t,29,2,2,0.8129,TRUE,speed
bl1t,30,1,1,0.5461,TRUE,neutral
bl1t,31,2,2,0.3714,TRUE,speed
bl1t,32,1,1,0.4538,TRUE,accuracy
bl1t,33,1,1,0.4395,TRUE,speed
bl1t,34,2,2,0.4118,TRUE,speed
bl1t,35,1,1,0.3493,TRUE,speed
bl1t,36,2,2,0.9329,TRUE,accuracy
bl1t,37,2,2,0.7095,TRUE,neutral
bl1t,38,2,2,0.3645,TRUE,speed
bl1t,39,2,2,0.5262,TRUE,speed
bl1t,40,2,2,0.3763,TRUE,speed
bl1t,41,1,1,0.5023,TRUE,accuracy
bl1t,42,1,1,0.4097,TRUE,neutral
bl1t,43,2,2,0.3821,TRUE,neutral
bl1t,44,2,1,0.5171,FALSE,neutral
bl1t,45,2,1,0.3764,FALSE,speed
bl1t,46,2,2,0.5293,TRUE,neutral
bl1t,48,2,2,0.5276,TRUE,accuracy
bl1t,49,1,1,0.4634,TRUE,neutral
bl1t,50,1,1,0.6274,TRUE,accuracy
bl1t,51,1,1,0.4495,TRUE,accuracy
bl1t,52,2,1,0.4882,FALSE,accuracy
bl1t,53,1,1,0.6888,TRUE,accuracy
bl1t,54,2,2,0.3827,TRUE,speed
bl1t,55,2,1,0.5521,FALSE,speed
bl1t,56,2,2,0.6448,TRUE,neutral
bl1t,57,1,1,0.5718,TRUE,accuracy
bl1t,58,2,2,0.5698,TRUE,accuracy
bl1t,59,2,2,0.7708,TRUE,neutral
bl1t,60,1,1,0.4751,TRUE,accuracy
bl1t,61,2,2,0.5763,TRUE,speed
bl1t,62,1,1,0.4411,TRUE,accuracy
bl1t,63,2,2,0.4301,TRUE,speed
bl1t,64,2,2,0.4035,TRUE,accuracy
bl1t,65,2,1,0.6535,FALSE,accuracy
bl1t,66,2,2,0.3783,TRUE,neutral
bl1t,67,1,1,0.3995,TRUE,speed
bl1t,68,1,1,0.3817,TRUE,neutral
bl1t,69,1,1,0.4202,TRUE,neutral
bl1t,70,1,1,0.3438,TRUE,speed
bl1t,71,1,1,0.3738,TRUE,speed
bl1t,72,1,1,0.7088,TRUE,accuracy
bl1t,73,1,1,0.5128,TRUE,speed
bl1t,74,2,2,0.4036,TRUE,neutral
bl1t,75,2,2,0.479,TRUE,neutral
bl1t,76,1,2,0.3678,FALSE,speed
bl1t,77,1,1,0.4156,TRUE,speed
bl1t,78,2,2,0.561,TRUE,accuracy
bl1t,79,1,1,0.434,TRUE,accuracy
bl1t,80,1,1,0.4018,TRUE,accuracy
bl1t,81,2,2,0.5976,TRUE,accuracy
bl1t,82,1,1,0.6521,TRUE,accuracy
bl1t,83,1,2,0.2955,FALSE,speed
bl1t,84,1,1,0.4857,TRUE,neutral
bl1t,85,1,1,0.3493,TRUE,speed
bl1t,86,1,1,0.4097,TRUE,neutral
bl1t,87,2,2,0.5523,TRUE,neutral
bl1t,88,1,1,0.3443,TRUE,speed
bl1t,89,1,1,0.3371,TRUE,speed
bl1t,90,1,1,0.4114,TRUE,neutral
bl1t,91,2,1,0.3999,FALSE,neutral
bl1t,92,1,1,0.6456,TRUE,accuracy
bl1t,93,1,1,0.3902,TRUE,accuracy
bl1t,94,2,1,0.4013,FALSE,speed
bl1t,95,2,2,0.5126,TRUE,accuracy
bl1t,96,1,1,0.3501,TRUE,speed
bl1t,97,1,1,0.3769,TRUE,speed
bl1t,98,2,2,0.5339,TRUE,accuracy
bl1t,99,1,1,0.4843,TRUE,neutral
bl1t,100,1,1,0.4407,TRUE,speed
bl1t,101,2,1,0.4552,FALSE,accuracy
bl1t,102,2,1,0.3432,FALSE,speed
bl1t,103,2,1,0.284,FALSE,speed
bl1t,104,1,1,0.5026,TRUE,neutral
bl1t,105,2,2,0.5854,TRUE,neutral
bl1t,106,1,1,0.4254,TRUE,accuracy
bl1t,107,1,2,0.3593,FALSE,speed
bl1t,108,2,2,0.8299,TRUE,neutral
bl1t,109,1,1,0.435,TRUE,speed
bl1t,110,1,1,0.3249,TRUE,speed
bl1t,111,2,2,0.4664,TRUE,accuracy
bl1t,112,2,2,1.2654,TRUE,accuracy
bl1t,113,2,2,0.4199,TRUE,speed
bl1t,114,1,1,0.4519,TRUE,accuracy
bl1t,115,2,1,0.3339,FALSE,speed
bl1t,116,1,1,0.4042,TRUE,neutral
bl1t,117,2,2,0.4578,TRUE,accuracy
bl1t,118,2,2,0.3984,TRUE,speed
bl1t,119,1,1,0.4714,TRUE,accuracy
bl1t,120,2,2,0.4805,TRUE,accuracy
bl1t,121,1,1,0.9739,TRUE,accuracy
bl1t,122,2,2,0.4211,TRUE,accuracy
bl1t,123,2,2,0.5207,TRUE,neutral
bl1t,124,2,2,0.4628,TRUE,neutral
bl1t,125,2,2,0.3529,TRUE,neutral
bl1t,126,1,1,0.3946,TRUE,speed
bl1t,127,2,2,0.4867,TRUE,accuracy
bl1t,128,1,1,0.3422,TRUE,speed
bl1t,129,2,2,0.4218,TRUE,neutral
bl1t,130,1,1,0.4102,TRUE,neutral
bl1t,131,1,1,0.442,TRUE,accuracy
bl1t,132,1,1,0.4845,TRUE,accuracy
bl1t,133,1,1,0.3861,TRUE,neutral
bl1t,134,1,1,0.4094,TRUE,accuracy
bl1t,135,2,2,0.4906,TRUE,neutral
bl1t,136,2,1,0.386,FALSE,speed
bl1t,137,2,2,0.3658,TRUE,neutral
bl1t,138,2,1,0.3253,FALSE,speed
bl1t,139,2,2,0.6768,TRUE,neutral
bl1t,140,2,2,0.728,TRUE,speed
bl1t,141,2,1,0.6879,FALSE,neutral
bl1t,142,2,2,0.4689,TRUE,neutral
bl1t,143,1,1,0.4519,TRUE,neutral
bl1t,144,2,2,0.5717,TRUE,accuracy
bl1t,145,2,1,0.5374,FALSE,accuracy
bl1t,146,2,2,0.6419,TRUE,accuracy
bl1t,147,2,2,0.9115,TRUE,neutral
bl1t,148,1,1,0.4664,TRUE,neutral
bl1t,149,2,2,0.3901,TRUE,speed
bl1t,150,1,1,0.3885,TRUE,neutral
bl1t,151,2,2,0.6573,TRUE,neutral
bl1t,152,1,1,0.4181,TRUE,neutral
bl1t,153,1,1,0.3952,TRUE,neutral
bl1t,154,2,2,0.4262,TRUE,speed
bl1t,155,1,1,0.3476,TRUE,speed
bl1t,156,1,1,0.4766,TRUE,neutral
bl1t,157,1,1,0.3954,TRUE,neutral
bl1t,158,2,2,0.3991,TRUE,neutral
bl1t,159,2,2,0.4481,TRUE,speed
bl1t,161,1,1,0.3039,TRUE,speed
bl1t,162,1,2,0.4681,FALSE,accuracy
bl1t,163,2,2,0.808,TRUE,neutral
bl1t,164,1,1,1.0231,TRUE,accuracy
bl1t,165,1,1,0.5448,TRUE,neutral
bl1t,166,1,1,0.3633,TRUE,speed
bl1t,167,2,2,0.4389,TRUE,accuracy
bl1t,168,2,1,0.3383,FALSE,speed
bl1t,169,2,2,0.3453,TRUE,speed
bl1t,170,2,2,0.4846,TRUE,speed
bl1t,171,2,2,0.8487,TRUE,accuracy
bl1t,172,1,1,0.3339,TRUE,speed
bl1t,173,2,2,0.5255,TRUE,neutral
bl1t,174,2,2,1.0052,TRUE,accuracy
bl1t,175,2,1,0.5088,FALSE,accuracy
bl1t,176,1,1,0.5725,TRUE,neutral
bl1t,177,1,1,0.991,TRUE,neutral
bl1t,178,1,1,0.3056,TRUE,speed
bl1t,179,2,1,0.3835,FALSE,speed
bl1t,180,2,2,0.4168,TRUE,speed
bl1t,181,1,1,0.5526,TRUE,speed
bl1t,182,2,1,1.0382,FALSE,accuracy
bl1t,183,1,1,0.3867,TRUE,speed
bl1t,184,2,2,0.4974,TRUE,accuracy
bl1t,185,1,1,0.4479,TRUE,accuracy
bl1t,186,1,1,0.4151,TRUE,accuracy
bl1t,187,1,1,0.4143,TRUE,speed
bl1t,188,1,2,0.3295,FALSE,speed
bl1t,189,2,2,0.6654,TRUE,neutral
bl1t,190,2,2,0.4755,TRUE,accuracy
bl1t,191,2,2,0.5798,TRUE,neutral
bl1t,192,2,1,0.477,FALSE,accuracy
bl1t,193,2,2,0.5196,TRUE,accuracy
bl1t,194,2,2,0.4921,TRUE,accuracy
bl1t,195,2,2,0.3652,TRUE,speed
bl1t,196,1,1,0.3197,TRUE,speed
bl1t,197,2,1,0.6466,FALSE,accuracy
bl1t,198,1,1,0.4989,TRUE,accuracy
bl1t,199,1,1,0.5383,TRUE,accuracy
bl1t,200,1,1,0.3205,TRUE,speed
bl1t,201,2,1,0.3419,FALSE,speed
bl1t,202,2,2,0.9823,TRUE,neutral
bl1t,203,1,1,0.4705,TRUE,accuracy
bl1t,204,1,1,0.4069,TRUE,neutral
bl1t,205,1,1,0.3513,TRUE,neutral
bl1t,206,2,1,0.3753,FALSE,speed
bl1t,207,2,2,0.5869,TRUE,accuracy
bl1t,208,1,1,0.4931,TRUE,neutral
bl1t,209,1,1,0.4594,TRUE,accuracy
bl1t,210,2,2,0.4651,TRUE,neutral
bl1t,211,1,1,0.3904,TRUE,speed
bl1t,212,2,1,0.3886,FALSE,speed
bl1t,213,1,1,0.3747,TRUE,speed
bl1t,214,1,2,0.3486,FALSE,speed
bl1t,215,2,2,0.4661,TRUE,speed
bl1t,216,2,2,0.5654,TRUE,neutral
bl1t,217,2,2,0.5855,TRUE,accuracy
bl1t,218,2,1,0.2925,FALSE,speed
bl1t,219,1,2,0.2687,FALSE,speed
bl1t,220,2,2,0.4568,TRUE,neutral
bl1t,221,2,2,0.4504,TRUE,accuracy
bl1t,222,1,1,0.338,TRUE,speed
bl1t,223,1,1,0.4161,TRUE,accuracy
bl1t,224,1,1,0.357,TRUE,speed
bl1t,225,1,1,0.3531,TRUE,speed
bl1t,226,1,2,0.4127,FALSE,speed
bl1t,227,1,1,0.6375,TRUE,accuracy
bl1t,228,2,2,0.4895,TRUE,neutral
bl1t,229,2,1,0.4388,FALSE,accuracy
bl1t,230,2,2,0.5282,TRUE,neutral
bl1t,231,1,1,0.4477,TRUE,accuracy
bl1t,232,1,1,0.3787,TRUE,speed
bl1t,233,1,1,0.3771,TRUE,accuracy
bl1t,234,2,2,0.6506,TRUE,neutral
bl1t,235,1,1,0.465,TRUE,neutral
bl1t,236,1,1,0.4576,TRUE,neutral
bl1t,237,1,1,0.4195,TRUE,neutral
bl1t,238,1,1,0.432,TRUE,neutral
bl1t,239,1,1,0.4175,TRUE,speed
bl1t,240,2,2,0.5699,TRUE,accuracy
bl1t,241,2,2,0.5522,TRUE,accuracy
bl1t,242,2,2,0.4971,TRUE,accuracy
bl1t,243,2,2,0.5426,TRUE,neutral
bl1t,244,1,1,0.4754,TRUE,accuracy
bl1t,245,2,2,0.4396,TRUE,accuracy
bl1t,246,1,1,0.5203,TRUE,accuracy
bl1t,247,1,1,0.6059,TRUE,accuracy
bl1t,248,1,1,0.7518,TRUE,neutral
bl1t,249,1,1,0.3438,TRUE,neutral
bl1t,250,1,1,0.4403,TRUE,neutral
bl1t,251,2,2,0.5473,TRUE,neutral
bl1t,252,2,2,0.4813,TRUE,accuracy
bl1t,253,1,1,0.3701,TRUE,speed
bl1t,254,1,1,0.4031,TRUE,neutral
bl1t,255,2,2,0.4073,TRUE,neutral
bl1t,256,2,2,0.3782,TRUE,speed
bl1t,257,2,1,0.4445,FALSE,speed
bl1t,258,1,1,0.5519,TRUE,accuracy
bl1t,259,2,2,0.3658,TRUE,speed
bl1t,260,1,2,0.3869,FALSE,speed
bl1t,261,1,1,0.7327,TRUE,accuracy
bl1t,262,2,2,0.4377,TRUE,accuracy
bl1t,263,2,1,0.3972,FALSE,neutral
bl1t,264,1,1,0.4179,TRUE,neutral
bl1t,265,1,1,0.315,TRUE,speed
bl1t,266,1,1,0.354,TRUE,speed
bl1t,267,2,2,0.4778,TRUE,neutral
bl1t,268,1,1,0.4704,TRUE,neutral
bl1t,269,2,2,0.5043,TRUE,speed
bl1t,270,2,2,0.53,TRUE,accuracy
bl1t,271,2,1,0.4234,FALSE,speed
bl1t,272,2,1,0.3669,FALSE,neutral
bl1t,273,2,1,0.3281,FALSE,speed
bl1t,274,2,2,0.4607,TRUE,accuracy
bl1t,275,2,2,0.5673,TRUE,neutral
bl1t,276,2,2,0.8198,TRUE,accuracy
bl1t,277,2,2,0.4125,TRUE,neutral
bl1t,278,2,1,0.3698,FALSE,speed
bl1t,279,1,1,0.3676,TRUE,speed
bl1t,280,2,2,0.5012,TRUE,speed
bl1t,281,2,2,0.3599,TRUE,accuracy
bl1t,282,1,1,0.34,TRUE,speed
bl1t,283,1,1,0.5485,TRUE,neutral
bl1t,284,1,2,0.3165,FALSE,speed
bl1t,285,2,2,0.6054,TRUE,neutral
bl1t,286,2,1,0.3113,FALSE,speed
bl1t,287,2,2,0.5813,TRUE,neutral
bl1t,288,2,2,0.7143,TRUE,accuracy
bl1t,289,2,2,0.3395,TRUE,speed
bl1t,290,2,2,1.0175,TRUE,accuracy
bl1t,291,2,2,0.5017,TRUE,accuracy
bl1t,292,2,2,0.391,TRUE,accuracy
bl1t,293,2,2,0.4294,TRUE,neutral
bl1t,294,2,2,0.37,TRUE,accuracy
bl1t,295,1,1,0.4117,TRUE,neutral
bl1t,296,1,2,0.3524,FALSE,speed
bl1t,297,2,2,0.4351,TRUE,neutral
bl1t,298,2,2,0.6845,TRUE,neutral
bl1t,299,2,2,0.3902,TRUE,speed
bl1t,300,1,1,0.4527,TRUE,accuracy
bl1t,301,2,1,0.4002,FALSE,neutral
bl1t,302,1,1,0.4285,TRUE,accuracy
bl1t,303,1,1,0.4281,TRUE,neutral
bl1t,304,2,2,0.7222,TRUE,accuracy
bl1t,305,1,1,0.4269,TRUE,neutral
bl1t,306,1,2,0.3592,FALSE,speed
bl1t,307,1,1,0.4722,TRUE,accuracy
bl1t,308,1,1,0.4293,TRUE,neutral
bl1t,309,1,1,0.3843,TRUE,speed
bl1t,310,2,2,0.3465,TRUE,speed
bl1t,311,1,1,0.7158,TRUE,neutral
bl1t,312,1,1,0.3267,TRUE,speed
bl1t,313,2,1,0.4893,FALSE,accuracy
bl1t,314,2,1,0.4676,FALSE,neutral
bl1t,315,2,2,0.4083,TRUE,speed
bl1t,316,1,1,0.5698,TRUE,accuracy
bl1t,317,1,1,0.4561,TRUE,accuracy
bl1t,318,2,2,0.7121,TRUE,neutral
bl1t,319,1,1,0.6363,TRUE,accuracy
bl1t,320,1,1,0.3431,TRUE,speed
bl1t,321,2,1,0.351,FALSE,speed
bl1t,322,1,1,0.5526,TRUE,neutral
bl1t,323,1,1,0.3792,TRUE,neutral
bl1t,324,2,1,0.3362,FALSE,accuracy
bl1t,325,2,2,0.8872,TRUE,neutral
bl1t,326,1,1,0.351,TRUE,speed
bl1t,327,1,1,0.497,TRUE,speed
bl1t,328,2,1,0.4843,FALSE,accuracy
bl1t,329,1,1,0.3725,TRUE,speed
bl1t,330,1,1,0.5959,TRUE,neutral
bl1t,331,2,1,0.4017,FALSE,neutral
bl1t,332,1,1,0.765,TRUE,neutral
bl1t,333,1,1,0.438,TRUE,neutral
bl1t,334,2,2,0.4069,TRUE,accuracy
bl1t,335,2,2,0.4203,TRUE,speed
bl1t,336,2,2,0.5623,TRUE,accuracy
bl1t,337,1,1,0.5004,TRUE,neutral
bl1t,338,1,1,0.4625,TRUE,accuracy
bl1t,339,2,2,0.4269,TRUE,speed
bl1t,340,1,1,0.3421,TRUE,speed
bl1t,341,2,1,0.4445,FALSE,accuracy
bl1t,342,2,2,0.6205,TRUE,neutral
bl1t,343,2,2,0.3438,TRUE,speed
bl1t,344,1,1,0.3654,TRUE,neutral
bl1t,345,2,2,0.3985,TRUE,speed
bl1t,346,1,2,0.5254,FALSE,accuracy
bl1t,347,1,1,0.2839,TRUE,speed
bl1t,348,2,1,0.3511,FALSE,neutral
bl1t,349,1,1,0.5439,TRUE,neutral
bl1t,350,1,1,0.4259,TRUE,accuracy
bl1t,351,2,2,0.4428,TRUE,neutral
bl1t,352,2,1,0.4446,FALSE,neutral
bl1t,353,1,1,0.5406,TRUE,neutral
bl1t,354,1,1,0.6548,TRUE,accuracy
bl1t,355,2,2,0.7035,TRUE,accuracy
bl1t,356,2,2,0.8896,TRUE,neutral
bl1t,357,1,1,0.512,TRUE,accuracy
bl1t,358,2,1,0.4437,FALSE,speed
bl1t,359,2,2,0.5077,TRUE,neutral
bl1t,360,2,1,0.2581,FALSE,speed
bl1t,361,1,2,0.4092,FALSE,neutral
bl1t,362,2,2,0.5427,TRUE,accuracy
bl1t,363,1,1,0.3948,TRUE,speed
bl1t,364,1,1,0.3802,TRUE,speed
bl1t,365,1,1,0.4796,TRUE,accuracy
bl1t,366,1,2,0.367,FALSE,speed
bl1t,367,2,2,0.3793,TRUE,speed
bl1t,368,2,2,0.4895,TRUE,accuracy
bl1t,369,1,1,0.4932,TRUE,accuracy
bl1t,370,1,1,0.4202,TRUE,accuracy
bl1t,371,2,1,0.5174,FALSE,speed
bl1t,372,2,1,0.4543,FALSE,neutral
bl1t,373,1,1,0.3448,TRUE,accuracy
bl1t,374,1,1,0.5296,TRUE,accuracy
bl1t,375,2,2,0.4896,TRUE,neutral
bl1t,376,2,1,0.3292,FALSE,speed
bl1t,377,1,1,0.4055,TRUE,speed
bl1t,378,2,2,0.6527,TRUE,neutral
bl1t,379,1,1,0.4881,TRUE,accuracy
bl1t,380,1,1,0.7652,TRUE,neutral
bl1t,381,2,2,0.5333,TRUE,accuracy
bl1t,382,1,1,0.3421,TRUE,accuracy
bl1t,383,2,2,0.8604,TRUE,accuracy
bl1t,384,1,1,0.3139,TRUE,speed
bl1t,385,1,1,0.3398,TRUE,speed
bl1t,386,2,2,1.2139,TRUE,accuracy
bl1t,387,1,1,0.3611,TRUE,speed
bl1t,388,1,1,0.3827,TRUE,speed
bl1t,389,1,1,0.5395,TRUE,accuracy
bl1t,390,2,2,0.9299,TRUE,neutral
bl1t,391,2,2,0.7104,TRUE,accuracy
bl1t,392,1,1,0.5113,TRUE,accuracy
bl1t,393,2,1,0.5432,FALSE,accuracy
bl1t,394,1,1,0.5687,TRUE,accuracy
bl1t,395,1,1,0.602,TRUE,accuracy
bl1t,396,2,1,0.3706,FALSE,speed
bl1t,397,1,1,0.4186,TRUE,neutral
bl1t,398,2,2,0.4099,TRUE,speed
bl1t,399,2,2,0.6638,TRUE,accuracy
bl1t,400,1,1,0.3446,TRUE,accuracy
bl1t,401,1,2,0.681,FALSE,accuracy
bl1t,402,2,1,0.3233,FALSE,speed
bl1t,403,1,1,0.866,TRUE,accuracy
bl1t,404,2,2,0.7837,TRUE,accuracy
bl1t,405,2,2,0.7065,TRUE,accuracy
bl1t,406,1,1,0.2954,TRUE,speed
bl1t,407,2,2,0.6408,TRUE,accuracy
bl1t,408,1,1,0.3247,TRUE,speed
bl1t,409,1,1,0.4565,TRUE,accuracy
bl1t,410,2,1,0.3497,FALSE,speed
bl1t,411,1,1,0.539,TRUE,neutral
bl1t,412,1,1,0.8745,TRUE,neutral
bl1t,413,1,2,0.2767,FALSE,speed
bl1t,414,2,2,0.7582,TRUE,accuracy
bl1t,415,1,1,0.5798,TRUE,accuracy
bl1t,416,1,1,0.6208,TRUE,neutral
bl1t,417,2,2,0.5286,TRUE,neutral
bl1t,418,2,2,0.5812,TRUE,neutral
bl1t,419,1,1,0.3043,TRUE,speed
bl1t,420,2,2,0.523,TRUE,accuracy
bl1t,421,1,1,0.6151,TRUE,accuracy
bl1t,422,1,1,0.8051,TRUE,speed
bl1t,423,2,2,0.6863,TRUE,neutral
bl1t,424,1,1,0.3245,TRUE,speed
bl1t,425,2,2,0.3094,TRUE,speed
bl1t,426,2,1,0.3222,FALSE,speed
bl1t,427,1,1,0.5521,TRUE,neutral
bl1t,428,1,1,0.4509,TRUE,neutral
bl1t,429,2,2,0.468,TRUE,accuracy
bl1t,430,2,2,0.5777,TRUE,accuracy
bl1t,431,2,2,0.5783,TRUE,accuracy
bl1t,432,2,2,0.5323,TRUE,neutral
bl1t,433,2,2,0.3166,TRUE,speed
bl1t,434,1,1,0.4115,TRUE,neutral
bl1t,435,1,1,0.5061,TRUE,neutral
bl1t,436,1,1,0.696,TRUE,accuracy
bl1t,437,2,1,0.2913,FALSE,speed
bl1t,438,1,1,0.3088,TRUE,speed
bl1t,439,2,2,0.4767,TRUE,speed
bl1t,440,1,2,0.7416,FALSE,neutral
bl1t,441,1,1,0.3651,TRUE,speed
bl1t,442,2,2,0.6054,TRUE,accuracy
bl1t,443,1,1,0.5534,TRUE,accuracy
bl1t,444,1,2,0.3405,FALSE,speed
bl1t,445,2,2,0.428,TRUE,neutral
bl1t,446,2,2,0.7259,TRUE,accuracy
bl1t,447,1,1,0.4974,TRUE,speed
bl1t,448,1,1,0.4925,TRUE,accuracy
bl1t,449,2,2,0.4289,TRUE,speed
bl1t,450,1,1,0.5249,TRUE,accuracy
bl1t,451,2,2,0.4786,TRUE,neutral
bl1t,452,2,2,0.4394,TRUE,accuracy
bl1t,453,2,2,0.5445,TRUE,accuracy
bl1t,454,1,1,0.6214,TRUE,accuracy
bl1t,455,1,1,0.3675,TRUE,neutral
bl1t,456,1,2,0.3743,FALSE,accuracy
bl1t,457,1,1,0.3066,TRUE,speed
bl1t,458,2,2,0.565,TRUE,neutral
bl1t,459,1,1,0.5576,TRUE,accuracy
bl1t,460,2,2,0.5589,TRUE,neutral
bl1t,461,2,1,0.3738,FALSE,speed
bl1t,462,2,2,0.527,TRUE,neutral
bl1t,463,2,1,0.4079,FALSE,neutral
bl1t,464,1,1,0.3913,TRUE,speed
bl1t,465,1,2,0.3102,FALSE,speed
bl1t,466,1,1,0.4179,TRUE,accuracy
bl1t,467,1,1,0.2936,TRUE,speed
bl1t,468,2,1,0.3249,FALSE,speed
bl1t,469,1,1,0.6843,TRUE,accuracy
bl1t,470,2,2,0.4565,TRUE,accuracy
bl1t,471,2,1,0.6156,FALSE,accuracy
bl1t,472,2,2,0.4999,TRUE,accuracy
bl1t,473,2,1,1.0968,FALSE,accuracy
bl1t,474,1,1,0.3265,TRUE,speed
bl1t,475,1,1,0.4713,TRUE,neutral
bl1t,476,1,2,0.3644,FALSE,speed
bl1t,477,1,1,0.9876,TRUE,neutral
bl1t,478,1,1,0.5061,TRUE,accuracy
bl1t,479,1,1,0.4146,TRUE,accuracy
bl1t,480,2,2,0.3681,TRUE,speed
bl1t,481,1,1,0.4516,TRUE,accuracy
bl1t,482,2,2,0.494,TRUE,accuracy
bl1t,483,2,1,0.301,FALSE,speed
bl1t,484,1,1,0.6612,TRUE,neutral
bl1t,485,1,1,0.4794,TRUE,accuracy
bl1t,486,1,2,0.5706,FALSE,accuracy
bl1t,487,2,2,0.6286,TRUE,neutral
bl1t,488,2,2,0.3499,TRUE,speed
bl1t,489,1,1,0.5963,TRUE,neutral
bl1t,490,1,1,0.4958,TRUE,accuracy
bl1t,491,2,2,0.4281,TRUE,accuracy
bl1t,492,1,2,0.4554,FALSE,accuracy
bl1t,493,1,1,0.4718,TRUE,speed
bl1t,494,2,2,0.3454,TRUE,speed
bl1t,495,1,1,0.3909,TRUE,speed
bl1t,496,2,1,0.3616,FALSE,accuracy
bl1t,497,1,2,0.3584,FALSE,speed
bl1t,498,1,1,0.9698,TRUE,accuracy
bl1t,499,2,2,0.3661,TRUE,speed
bl1t,500,1,2,0.4013,FALSE,neutral
bl1t,501,1,1,0.5606,TRUE,speed
bl1t,502,1,1,0.923,TRUE,accuracy
bl1t,503,1,2,0.373,FALSE,speed
bl1t,504,2,2,0.8411,TRUE,neutral
bl1t,505,1,1,0.3218,TRUE,speed
bl1t,506,2,2,0.5593,TRUE,accuracy
bl1t,507,1,1,0.3265,TRUE,speed
bl1t,508,1,1,0.558,TRUE,neutral
bl1t,509,1,1,0.9417,TRUE,accuracy
bl1t,510,1,1,0.454,TRUE,neutral
bl1t,511,1,1,0.7048,TRUE,accuracy
bl1t,512,2,1,0.2922,FALSE,speed
bl1t,513,1,1,0.3658,TRUE,accuracy
bl1t,514,1,1,0.6678,TRUE,neutral
bl1t,515,1,1,0.7401,TRUE,accuracy
bl1t,516,1,2,0.5796,FALSE,speed
bl1t,517,1,1,0.7834,TRUE,accuracy
bl1t,519,2,2,0.3707,TRUE,speed
bl1t,520,1,1,0.507,TRUE,neutral
bl1t,521,1,1,0.399,TRUE,neutral
bl1t,522,2,1,0.28,FALSE,speed
bl1t,523,1,1,0.5135,TRUE,accuracy
bl1t,524,2,2,0.3964,TRUE,speed
bl1t,525,1,1,0.4421,TRUE,speed
bl1t,526,1,1,0.6093,TRUE,accuracy
bl1t,527,1,1,0.4264,TRUE,accuracy
bl1t,528,2,1,0.5591,FALSE,speed
bl1t,529,1,1,0.3866,TRUE,accuracy
bl1t,530,2,2,0.4013,TRUE,speed
bl1t,531,2,2,1.0195,TRUE,neutral
bl1t,532,1,1,0.5417,TRUE,neutral
bl1t,534,2,2,1.1519,TRUE,accuracy
bl1t,535,2,2,0.3051,TRUE,speed
bl1t,536,1,1,0.4509,TRUE,speed
bl1t,537,1,1,0.3314,TRUE,speed
bl1t,538,1,1,0.4318,TRUE,accuracy
bl1t,539,1,2,0.6713,FALSE,neutral
bl1t,540,2,1,0.3731,FALSE,speed
bl1t,541,1,1,0.4651,TRUE,neutral
bl1t,542,2,2,0.3523,TRUE,speed
bl1t,543,1,2,0.6212,FALSE,accuracy
bl1t,544,1,1,0.7934,TRUE,accuracy
bl1t,545,2,2,0.9473,TRUE,neutral
bl1t,546,1,1,0.7618,TRUE,accuracy
bl1t,547,1,1,0.864,TRUE,neutral
bl1t,548,1,1,0.5113,TRUE,accuracy
bl1t,549,2,2,0.5354,TRUE,accuracy
bl1t,550,1,1,0.841,TRUE,accuracy
bl1t,551,1,1,0.3601,TRUE,neutral
bl1t,552,2,1,0.5264,FALSE,accuracy
bl1t,553,2,2,0.4965,TRUE,accuracy
bl1t,554,1,1,0.2864,TRUE,speed
bl1t,555,2,2,0.4658,TRUE,neutral
bl1t,557,2,2,0.455,TRUE,neutral
bl1t,558,1,1,0.3149,TRUE,speed
bl1t,559,1,2,0.3242,FALSE,speed
bl1t,560,1,1,0.4628,TRUE,accuracy
bl1t,561,1,1,0.4883,TRUE,accuracy
bl1t,562,2,2,0.3324,TRUE,speed
bl1t,563,1,1,0.3489,TRUE,speed
bl1t,564,1,1,0.4666,TRUE,neutral
bl1t,565,2,1,0.344,FALSE,neutral
bl1t,566,1,1,0.2831,TRUE,speed
bl1t,567,1,1,0.3754,TRUE,neutral
bl1t,568,1,1,0.7546,TRUE,accuracy
bl1t,569,1,1,0.3485,TRUE,speed
bl1t,570,1,1,0.5626,TRUE,neutral
bl1t,571,2,1,0.3207,FALSE,speed
bl1t,572,2,1,0.6161,FALSE,neutral
bl1t,573,2,2,0.4787,TRUE,speed
bl1t,574,1,1,0.4221,TRUE,neutral
bl1t,575,2,1,0.29,FALSE,speed
bl1t,576,1,1,0.3615,TRUE,neutral
bl1t,577,2,2,0.38,TRUE,speed
bl1t,578,1,1,0.3792,TRUE,accuracy
bl1t,579,2,1,0.7756,FALSE,accuracy
bl1t,580,1,1,0.5137,TRUE,neutral
bl1t,581,2,2,0.6976,TRUE,accuracy
bl1t,582,1,1,0.8471,TRUE,neutral
bl1t,583,1,1,0.3342,TRUE,speed
bl1t,584,2,1,0.3692,FALSE,speed
bl1t,585,1,1,0.4839,TRUE,neutral
bl1t,586,1,1,0.4905,TRUE,neutral
bl1t,587,1,1,0.709,TRUE,accuracy
bl1t,588,2,1,0.4806,FALSE,accuracy
bl1t,589,1,1,0.2757,TRUE,speed
bl1t,590,2,2,0.5289,TRUE,accuracy
bl1t,591,1,1,0.5157,TRUE,neutral
bl1t,592,1,1,0.4923,TRUE,accuracy
bl1t,593,2,2,0.6085,TRUE,neutral
bl1t,594,2,1,0.3474,FALSE,speed
bl1t,595,1,1,0.3626,TRUE,speed
bl1t,596,1,1,0.4,TRUE,accuracy
bl1t,597,2,2,0.4275,TRUE,accuracy
bl1t,598,2,2,0.4801,TRUE,neutral
bl1t,599,2,1,0.4968,FALSE,neutral
bl1t,600,1,1,1.0224,TRUE,accuracy
bl1t,601,1,1,1.039,TRUE,neutral
bl1t,602,2,2,0.5439,TRUE,accuracy
bl1t,603,2,2,0.6689,TRUE,neutral
bl1t,604,2,1,0.4746,FALSE,neutral
bl1t,605,1,1,0.3731,TRUE,speed
bl1t,606,2,2,0.9429,TRUE,accuracy
bl1t,607,2,1,0.2786,FALSE,speed
bl1t,608,2,1,0.3369,FALSE,speed
bl1t,609,2,2,0.6077,TRUE,neutral
bl1t,610,2,1,0.5391,FALSE,speed
bl1t,611,2,2,0.5639,TRUE,accuracy
bl1t,612,2,2,1.2867,TRUE,neutral
bl1t,613,2,1,0.2959,FALSE,speed
bl1t,614,2,2,0.4992,TRUE,neutral
bl1t,615,2,2,0.6444,TRUE,accuracy
bl1t,616,2,1,0.3364,FALSE,speed
bl1t,617,2,2,0.8226,TRUE,accuracy
bl1t,618,1,1,0.578,TRUE,neutral
bl1t,619,1,1,0.2626,TRUE,speed
bl1t,620,1,1,0.4132,TRUE,accuracy
bl1t,621,2,1,0.3112,FALSE,speed
bl1t,622,2,2,0.5831,TRUE,accuracy
bl1t,623,1,2,0.4768,FALSE,neutral
bl1t,624,2,1,0.5574,FALSE,accuracy
bl1t,625,2,2,0.8333,TRUE,neutral
bl1t,626,1,1,0.2883,TRUE,speed
bl1t,627,1,1,0.4483,TRUE,neutral
bl1t,628,1,1,0.3777,TRUE,speed
bl1t,629,1,2,0.3831,FALSE,speed
bl1t,630,1,1,0.3019,TRUE,speed
bl1t,631,1,1,0.7016,TRUE,neutral
bl1t,632,1,1,0.306,TRUE,speed
bl1t,633,1,1,0.2731,TRUE,speed
bl1t,634,2,2,0.7816,TRUE,accuracy
bl1t,635,2,2,0.3656,TRUE,speed
bl1t,636,2,2,0.6137,TRUE,neutral
bl1t,637,1,1,0.4498,TRUE,accuracy
bl1t,638,1,1,0.4787,TRUE,speed
bl1t,639,2,2,0.3448,TRUE,speed
bl1t,640,2,2,0.4303,TRUE,neutral
bl1t,641,2,2,0.4326,TRUE,neutral
bl1t,642,2,2,0.5123,TRUE,neutral
bl1t,643,2,2,1.422,TRUE,accuracy
bl1t,644,1,1,0.617,TRUE,accuracy
bl1t,645,2,1,0.2817,FALSE,speed
bl1t,646,1,1,0.3506,TRUE,speed
bl1t,647,2,1,0.464,FALSE,neutral
bl1t,648,1,1,0.5533,TRUE,accuracy
bl1t,649,2,2,0.846,TRUE,accuracy
bl1t,650,2,1,0.528,FALSE,accuracy
bl1t,651,1,1,0.3369,TRUE,speed
bl1t,652,2,1,0.2865,FALSE,speed
bl1t,653,2,2,0.4009,TRUE,speed
bl1t,654,1,1,0.3687,TRUE,speed
bl1t,655,2,1,0.3467,FALSE,speed
bl1t,656,1,1,0.7677,TRUE,accuracy
bl1t,657,2,2,0.3008,TRUE,speed
bl1t,658,1,2,0.335,FALSE,speed
bl1t,659,2,1,0.2927,FALSE,speed
bl1t,660,1,1,0.5086,TRUE,neutral
bl1t,661,1,1,0.459,TRUE,accuracy
bl1t,662,2,2,0.5617,TRUE,accuracy
bl1t,663,1,1,0.6253,TRUE,accuracy
bl1t,664,2,1,0.2756,FALSE,speed
bl1t,665,2,1,0.357,FALSE,speed
bl1t,666,1,1,0.7142,TRUE,neutral
bl1t,667,1,1,0.6806,TRUE,accuracy
bl1t,668,1,2,0.514,FALSE,speed
bl1t,669,2,2,0.4979,TRUE,neutral
bl1t,670,2,1,0.3227,FALSE,speed
bl1t,671,1,2,0.3822,FALSE,speed
bl1t,672,2,1,0.4365,FALSE,speed
bl1t,673,1,1,0.4499,TRUE,accuracy
bl1t,674,1,1,0.3036,TRUE,speed
bl1t,675,1,1,0.5999,TRUE,accuracy
bl1t,676,1,1,0.4781,TRUE,accuracy
bl1t,677,2,2,0.3407,TRUE,speed
bl1t,678,1,1,0.5509,TRUE,neutral
bl1t,679,2,2,0.7748,TRUE,neutral
bl1t,680,1,1,0.6551,TRUE,accuracy
bl1t,681,1,1,0.4688,TRUE,neutral
bl1t,682,2,2,0.3454,TRUE,speed
bl1t,683,2,2,0.6108,TRUE,accuracy
bl1t,684,2,1,0.3965,FALSE,speed
bl1t,685,2,2,0.8244,TRUE,accuracy
bl1t,686,1,2,0.6195,FALSE,accuracy
bl1t,687,2,2,0.6148,TRUE,neutral
bl1t,688,1,1,0.6055,TRUE,neutral
bl1t,689,1,1,0.3622,TRUE,speed
bl1t,690,1,1,0.4439,TRUE,neutral
bl1t,691,1,2,0.3302,FALSE,speed
bl1t,692,1,2,0.3954,FALSE,speed
bl1t,693,1,2,0.5506,FALSE,neutral
bl1t,694,1,1,0.3415,TRUE,speed
bl1t,695,2,2,0.339,TRUE,speed
bl1t,696,1,1,0.5516,TRUE,accuracy
bl1t,697,2,2,0.459,TRUE,speed
bl1t,698,2,2,0.4238,TRUE,neutral
bl1t,699,1,1,0.8181,TRUE,neutral
bl1t,700,2,2,0.3996,TRUE,neutral
bl1t,701,2,1,0.3215,FALSE,speed
bl1t,702,1,1,0.4502,TRUE,accuracy
bl1t,703,1,1,0.3321,TRUE,neutral
bl1t,704,2,2,0.4684,TRUE,neutral
bl1t,705,2,1,0.2924,FALSE,speed
bl1t,706,2,1,0.3184,FALSE,speed
bl1t,707,1,1,0.7399,TRUE,accuracy
bl1t,708,2,2,0.6624,TRUE,neutral
bl1t,709,1,1,0.4995,TRUE,accuracy
bl1t,710,1,2,0.3698,FALSE,speed
bl1t,711,1,1,0.3765,TRUE,accuracy
bl1t,712,2,1,0.341,FALSE,speed
bl1t,713,2,2,0.5259,TRUE,neutral
bl1t,714,2,2,0.3314,TRUE,speed
bl1t,715,1,1,0.4341,TRUE,accuracy
bl1t,716,2,1,0.5081,FALSE,neutral
bl1t,717,2,2,0.374,TRUE,speed
bl1t,718,2,2,0.6178,TRUE,neutral
bl1t,719,1,1,0.4931,TRUE,neutral
bl1t,720,2,1,0.5491,FALSE,neutral
bl1t,721,2,1,0.3548,FALSE,speed
bl1t,722,1,1,0.6018,TRUE,neutral
bl1t,723,1,1,0.4323,TRUE,neutral
bl1t,724,1,1,0.4744,TRUE,speed
bl1t,725,1,1,0.3518,TRUE,speed
bl1t,726,1,1,0.3241,TRUE,speed
bl1t,727,2,1,0.3205,FALSE,speed
bl1t,728,1,1,0.451,TRUE,accuracy
bl1t,729,2,2,0.5735,TRUE,neutral
bl1t,730,1,1,0.3767,TRUE,neutral
bl1t,731,2,2,0.3809,TRUE,speed
bl1t,732,1,1,0.3372,TRUE,speed
bl1t,733,2,2,0.4841,TRUE,neutral
bl1t,734,2,1,0.4133,FALSE,accuracy
bl1t,735,1,1,0.3526,TRUE,speed
bl1t,736,2,2,0.9948,TRUE,accuracy
bl1t,737,2,1,0.3865,FALSE,speed
bl1t,738,1,1,0.4428,TRUE,speed
bl1t,739,1,1,0.4526,TRUE,neutral
bl1t,740,2,2,0.5341,TRUE,accuracy
bl1t,741,2,1,0.5044,FALSE,accuracy
bl1t,743,1,1,0.3966,TRUE,speed
bl1t,744,1,1,0.3499,TRUE,speed
bl1t,745,1,1,0.3459,TRUE,speed
bl1t,746,1,1,1.4769,TRUE,accuracy
bl1t,747,1,2,0.3329,FALSE,speed
bl1t,748,1,1,0.3194,TRUE,speed
bl1t,749,1,2,0.3422,FALSE,speed
bl1t,750,2,2,0.5249,TRUE,accuracy
bl1t,751,2,2,0.9281,TRUE,neutral
bl1t,752,2,2,0.5091,TRUE,accuracy
bl1t,753,1,2,0.3455,FALSE,speed
bl1t,754,2,1,0.4006,FALSE,speed
bl1t,755,1,2,0.3646,FALSE,speed
bl1t,756,1,1,0.4086,TRUE,speed
bl1t,757,2,2,0.6714,TRUE,neutral
bl1t,758,2,1,0.4106,FALSE,speed
bl1t,759,1,1,0.5917,TRUE,accuracy
bl1t,760,2,2,0.3464,TRUE,speed
bl1t,761,1,1,0.353,TRUE,speed
bl1t,762,1,1,0.3169,TRUE,speed
bl1t,763,2,2,0.6064,TRUE,neutral
bl1t,764,2,2,0.6163,TRUE,neutral
bl1t,765,2,1,0.5786,FALSE,accuracy
bl1t,766,2,2,1.0835,TRUE,neutral
bl1t,767,2,2,0.4312,TRUE,accuracy
bl1t,768,1,1,0.4008,TRUE,accuracy
bl1t,769,2,2,0.3645,TRUE,speed
bl1t,770,2,1,0.4292,FALSE,speed
bl1t,771,1,1,0.4579,TRUE,neutral
bl1t,772,1,1,0.4759,TRUE,accuracy
bl1t,773,2,2,0.8234,TRUE,accuracy
bl1t,774,1,1,0.4491,TRUE,accuracy
bl1t,775,1,1,0.437,TRUE,neutral
bl1t,776,2,2,0.7228,TRUE,accuracy
bl1t,777,1,1,0.457,TRUE,neutral
bl1t,778,1,2,0.386,FALSE,speed
bl1t,779,2,2,0.8875,TRUE,neutral
bl1t,780,2,2,0.5337,TRUE,neutral
bl1t,781,1,2,0.5395,FALSE,accuracy
bl1t,782,2,2,0.8637,TRUE,neutral
bl1t,783,2,1,0.4279,FALSE,speed
bl1t,784,1,1,0.575,TRUE,accuracy
bl1t,785,1,1,0.442,TRUE,accuracy
bl1t,786,1,1,0.2871,TRUE,speed
bl1t,787,2,1,0.3764,FALSE,accuracy
bl1t,788,2,2,0.4797,TRUE,accuracy
bl1t,789,1,1,0.3105,TRUE,speed
bl1t,790,2,2,0.4783,TRUE,accuracy
bl1t,791,2,2,0.6754,TRUE,accuracy
bl1t,792,2,2,0.783,TRUE,accuracy
bl1t,793,1,1,0.4223,TRUE,neutral
bl1t,794,1,1,0.3687,TRUE,speed
bl1t,795,1,1,0.8135,TRUE,accuracy
bl1t,796,1,1,0.5952,TRUE,neutral
bl1t,797,1,1,0.3579,TRUE,neutral
bl1t,799,1,1,0.8981,TRUE,neutral
bl1t,800,1,1,0.5079,TRUE,neutral
bl1t,801,2,2,0.3514,TRUE,speed
bl1t,802,1,1,0.5553,TRUE,neutral
bl1t,803,1,1,0.9093,TRUE,accuracy
bl1t,804,2,2,0.5476,TRUE,accuracy
bl1t,805,2,1,0.3611,FALSE,speed
bl1t,806,1,1,0.5046,TRUE,accuracy
bl1t,807,1,1,0.8377,TRUE,accuracy
bl1t,808,2,2,0.4333,TRUE,speed
bl1t,809,1,1,0.5377,TRUE,neutral
bl1t,810,1,2,0.6262,FALSE,neutral
bl1t,811,1,1,0.3096,TRUE,speed
bl1t,812,2,2,0.3435,TRUE,speed
bl1t,813,1,1,0.4646,TRUE,neutral
bl1t,814,1,1,0.4856,TRUE,neutral
bl1t,815,1,2,0.5752,FALSE,accuracy
bl1t,816,1,1,0.4852,TRUE,accuracy
bl1t,817,2,1,0.6483,FALSE,accuracy
bl1t,818,2,2,0.3568,TRUE,speed
bl1t,819,2,2,0.3895,TRUE,speed
bl1t,820,2,1,0.6237,FALSE,accuracy
bl1t,821,1,1,0.3194,TRUE,speed
bl1t,822,2,1,0.2949,FALSE,speed
bl1t,823,1,1,0.2719,TRUE,speed
bl1t,824,1,2,0.4469,FALSE,accuracy
bl1t,825,2,1,0.7981,FALSE,accuracy
bl1t,826,2,2,1.4322,TRUE,neutral
bl1t,827,2,2,0.4598,TRUE,speed
bl1t,828,1,1,0.3023,TRUE,speed
bl1t,829,1,1,0.3065,TRUE,speed
bl1t,830,2,1,0.2951,FALSE,speed
bl1t,831,1,1,0.2576,TRUE,speed
bl1t,832,2,2,0.3378,TRUE,speed
bl1t,833,1,1,0.3535,TRUE,speed
bl1t,834,1,1,0.5993,TRUE,accuracy
bl1t,835,1,1,0.6163,TRUE,accuracy
bl1t,836,1,1,0.4324,TRUE,neutral
bl1t,837,2,1,0.3611,FALSE,accuracy
bl1t,838,2,2,0.8683,TRUE,accuracy
bl1t,839,1,1,0.5122,TRUE,neutral
bl1t,840,2,2,0.8256,TRUE,accuracy
bl1t,841,2,2,0.3409,TRUE,speed
bl1t,842,1,1,0.5313,TRUE,neutral
bl1t,843,1,2,0.3672,FALSE,speed
bl1t,844,1,1,0.4429,TRUE,speed
bl1t,845,2,2,1.1019,TRUE,accuracy
bl1t,846,1,2,0.3345,FALSE,speed
bl1t,847,1,1,0.4326,TRUE,neutral
bl1t,848,2,1,0.3452,FALSE,speed
bl1t,849,2,1,0.3535,FALSE,speed
bl1t,850,2,2,0.8248,TRUE,neutral
hsft,1,1,1,0.4727,TRUE,accuracy
hsft,2,1,1,0.4087,TRUE,neutral
hsft,3,2,2,0.488,TRUE,neutral
hsft,4,1,1,0.4493,TRUE,accuracy
hsft,5,2,2,0.4809,TRUE,accuracy
hsft,6,1,1,0.3998,TRUE,accuracy
hsft,7,1,1,0.4786,TRUE,neutral
hsft,8,1,1,0.3687,TRUE,speed
hsft,9,2,2,0.4297,TRUE,neutral
hsft,10,2,2,0.4494,TRUE,accuracy
hsft,11,1,1,0.4055,TRUE,neutral
hsft,12,2,2,0.406,TRUE,neutral
hsft,13,2,2,0.4197,TRUE,accuracy
hsft,14,2,2,0.5185,TRUE,speed
hsft,15,2,2,0.3115,TRUE,speed
hsft,16,1,1,0.4195,TRUE,accuracy
hsft,17,2,2,0.4764,TRUE,accuracy
hsft,18,1,1,0.4302,TRUE,speed
hsft,19,2,2,0.3274,TRUE,speed
hsft,20,2,2,0.3876,TRUE,speed
hsft,21,2,2,0.3549,TRUE,neutral
hsft,22,2,2,0.3759,TRUE,neutral
hsft,23,2,1,0.3738,FALSE,speed
hsft,24,2,2,0.4688,TRUE,accuracy
hsft,25,1,1,0.4704,TRUE,accuracy
hsft,26,2,2,0.4079,TRUE,accuracy
hsft,27,1,1,0.408,TRUE,accuracy
hsft,28,1,1,0.4357,TRUE,neutral
hsft,29,2,2,0.3807,TRUE,speed
hsft,30,2,2,0.418,TRUE,neutral
hsft,31,2,2,0.6508,TRUE,accuracy
hsft,32,2,2,0.537,TRUE,neutral
hsft,33,2,2,0.4839,TRUE,neutral
hsft,34,2,2,0.4684,TRUE,accuracy
hsft,35,1,1,0.4017,TRUE,speed
hsft,36,1,1,0.4006,TRUE,accuracy
hsft,37,1,1,0.5031,TRUE,neutral
hsft,38,2,2,0.4569,TRUE,accuracy
hsft,39,2,1,0.3364,FALSE,neutral
hsft,40,1,1,0.5176,TRUE,neutral
hsft,41,1,1,0.551,TRUE,accuracy
hsft,42,2,2,0.516,TRUE,neutral
hsft,43,1,1,0.372,TRUE,speed
hsft,44,2,2,0.4379,TRUE,neutral
hsft,45,1,1,0.3676,TRUE,neutral
hsft,46,2,2,0.3513,TRUE,neutral
hsft,47,2,2,0.4023,TRUE,neutral
hsft,48,1,1,0.3768,TRUE,speed
hsft,49,2,2,0.4409,TRUE,neutral
hsft,50,2,2,0.404,TRUE,neutral
hsft,51,2,2,0.4663,TRUE,neutral
hsft,52,2,2,0.3896,TRUE,accuracy
hsft,53,1,1,0.4804,TRUE,neutral
hsft,54,2,2,0.4201,TRUE,speed
hsft,55,2,2,0.3984,TRUE,neutral
hsft,56,1,1,0.424,TRUE,accuracy
hsft,57,2,2,0.4994,TRUE,neutral
hsft,58,1,1,0.3179,TRUE,speed
hsft,59,1,1,0.3365,TRUE,speed
hsft,60,1,1,0.3789,TRUE,speed
hsft,61,1,1,0.7431,TRUE,accuracy
hsft,62,2,2,0.4383,TRUE,speed
hsft,63,1,1,0.4885,TRUE,accuracy
hsft,64,1,1,0.4344,TRUE,speed
hsft,65,2,2,0.5224,TRUE,accuracy
hsft,66,1,1,0.4697,TRUE,accuracy
hsft,67,1,1,0.4119,TRUE,speed
hsft,68,1,1,0.3752,TRUE,neutral
hsft,69,1,1,0.4845,TRUE,accuracy
hsft,70,1,1,0.3337,TRUE,speed
hsft,71,1,1,0.443,TRUE,neutral
hsft,72,2,2,0.5118,TRUE,accuracy
hsft,73,1,1,0.4149,TRUE,speed
hsft,74,1,1,0.3089,TRUE,speed
hsft,75,2,2,0.4997,TRUE,neutral
hsft,76,1,1,0.3883,TRUE,neutral
hsft,77,1,1,0.4739,TRUE,accuracy
hsft,78,1,1,0.3306,TRUE,speed
hsft,79,2,2,0.4426,TRUE,accuracy
hsft,80,2,2,0.4514,TRUE,speed
hsft,81,2,2,0.6525,TRUE,neutral
hsft,82,1,1,0.5191,TRUE,accuracy
hsft,83,1,1,0.4716,TRUE,neutral
hsft,84,2,2,0.4378,TRUE,accuracy
hsft,85,2,2,0.3092,TRUE,speed
hsft,86,1,1,0.3656,TRUE,neutral
hsft,87,2,2,0.5413,TRUE,accuracy
hsft,88,1,1,0.434,TRUE,neutral
hsft,89,1,1,0.437,TRUE,accuracy
hsft,90,2,2,0.4215,TRUE,accuracy
hsft,91,1,1,0.4631,TRUE,neutral
hsft,92,2,2,0.4407,TRUE,accuracy
hsft,93,1,1,0.3288,TRUE,speed
hsft,94,1,1,0.3416,TRUE,speed
hsft,95,1,1,0.3703,TRUE,neutral
hsft,96,2,2,0.3851,TRUE,accuracy
hsft,97,1,1,0.3442,TRUE,accuracy
hsft,98,2,2,0.5905,TRUE,neutral
hsft,99,2,2,0.5052,TRUE,accuracy
hsft,100,1,1,0.3608,TRUE,speed
hsft,101,1,1,0.4251,TRUE,speed
hsft,102,1,1,0.4064,TRUE,speed
hsft,103,1,1,0.3935,TRUE,accuracy
hsft,104,1,1,0.3775,TRUE,speed
hsft,105,2,2,0.4487,TRUE,neutral
hsft,106,2,2,0.3669,TRUE,neutral
hsft,107,1,1,0.4306,TRUE,speed
hsft,108,1,1,0.4868,TRUE,accuracy
hsft,109,1,1,0.3957,TRUE,accuracy
hsft,110,2,2,0.3771,TRUE,neutral
hsft,111,1,1,0.3807,TRUE,neutral
hsft,112,2,2,0.4705,TRUE,accuracy
hsft,113,1,1,0.3608,TRUE,neutral
hsft,114,2,2,0.4687,TRUE,neutral
hsft,115,2,2,0.5785,TRUE,accuracy
hsft,116,1,1,0.4595,TRUE,accuracy
hsft,117,2,2,0.4049,TRUE,speed
hsft,118,1,1,0.4611,TRUE,accuracy
hsft,119,2,2,0.4956,TRUE,neutral
hsft,120,2,2,0.4114,TRUE,accuracy
hsft,121,2,2,0.443,TRUE,neutral
hsft,122,1,1,0.2829,TRUE,speed
hsft,123,2,2,0.345,TRUE,speed
hsft,124,2,2,0.4933,TRUE,accuracy
hsft,125,2,2,0.5093,TRUE,speed
hsft,126,1,1,0.4419,TRUE,neutral
hsft,127,2,2,0.4443,TRUE,accuracy
hsft,128,1,1,0.3072,TRUE,speed
hsft,129,2,2,0.4069,TRUE,accuracy
hsft,130,1,1,0.4332,TRUE,neutral
hsft,131,2,2,0.3053,TRUE,speed
hsft,132,2,2,0.4772,TRUE,accuracy
hsft,133,2,2,0.409,TRUE,speed
hsft,134,2,2,0.4511,TRUE,neutral
hsft,135,2,2,0.4575,TRUE,accuracy
hsft,136,1,1,0.4201,TRUE,speed
hsft,137,2,2,0.4576,TRUE,accuracy
hsft,138,1,2,0.2595,FALSE,speed
hsft,139,1,1,0.5059,TRUE,accuracy
hsft,140,1,1,0.4149,TRUE,accuracy
hsft,141,2,2,0.476,TRUE,accuracy
hsft,142,2,1,0.3297,FALSE,speed
hsft,143,1,1,0.6752,TRUE,accuracy
hsft,144,2,2,0.4791,TRUE,accuracy
hsft,145,1,1,0.3653,TRUE,speed
hsft,146,1,1,0.4327,TRUE,accuracy
hsft,147,1,1,0.4573,TRUE,speed
hsft,148,2,2,0.4809,TRUE,accuracy
hsft,149,2,2,0.4055,TRUE,neutral
hsft,150,2,2,0.506,TRUE,accuracy
hsft,151,2,2,0.4233,TRUE,accuracy
hsft,152,2,2,0.5116,TRUE,accuracy
hsft,153,1,1,0.3567,TRUE,speed
hsft,154,2,2,0.4193,TRUE,accuracy
hsft,155,1,1,0.3513,TRUE,speed
hsft,156,2,2,0.3293,TRUE,speed
hsft,157,1,1,0.3827,TRUE,neutral
hsft,158,2,1,0.2754,FALSE,speed
hsft,159,1,1,0.3774,TRUE,neutral
hsft,160,1,1,0.4246,TRUE,neutral
hsft,161,2,2,0.8011,TRUE,accuracy
hsft,162,1,1,0.4236,TRUE,neutral
hsft,163,2,2,0.4793,TRUE,accuracy
hsft,164,2,1,0.2656,FALSE,speed
hsft,165,1,1,0.2735,TRUE,speed
hsft,166,1,1,0.5577,TRUE,accuracy
hsft,167,1,1,0.6448,TRUE,neutral
hsft,168,1,1,0.4663,TRUE,speed
hsft,169,1,1,0.3623,TRUE,neutral
hsft,170,1,1,0.4366,TRUE,neutral
hsft,171,2,2,0.4521,TRUE,speed
hsft,172,2,2,0.4301,TRUE,accuracy
hsft,173,2,1,0.3261,FALSE,speed
hsft,174,2,2,0.4676,TRUE,accuracy
hsft,175,2,2,0.4461,TRUE,accuracy
hsft,176,2,2,0.3819,TRUE,accuracy
hsft,177,1,1,0.3622,TRUE,speed
hsft,178,2,2,0.3799,TRUE,speed
hsft,179,2,2,0.5115,TRUE,accuracy
hsft,180,2,1,0.5261,FALSE,speed
hsft,181,1,1,0.3598,TRUE,neutral
hsft,182,1,1,0.3401,TRUE,speed
hsft,183,1,1,0.7022,TRUE,speed
hsft,184,1,1,0.4045,TRUE,neutral
hsft,185,2,2,0.5441,TRUE,speed
hsft,186,1,1,0.4068,TRUE,speed
hsft,187,1,1,0.3965,TRUE,neutral
hsft,188,1,1,0.3586,TRUE,neutral
hsft,189,2,2,0.3923,TRUE,speed
hsft,190,1,1,0.3161,TRUE,speed
hsft,191,1,1,0.4128,TRUE,neutral
hsft,192,2,2,0.3842,TRUE,speed
hsft,193,1,1,0.3489,TRUE,neutral
hsft,194,1,1,0.4419,TRUE,neutral
hsft,195,1,1,0.4815,TRUE,speed
hsft,196,1,1,0.5234,TRUE,accuracy
hsft,197,2,2,0.3321,TRUE,speed
hsft,198,1,1,0.3384,TRUE,speed
hsft,199,2,2,0.3313,TRUE,speed
hsft,200,1,1,0.3991,TRUE,neutral
hsft,201,2,2,0.3399,TRUE,speed
hsft,202,2,1,0.3006,FALSE,speed
hsft,203,2,2,0.3573,TRUE,speed
hsft,204,2,2,0.532,TRUE,speed
hsft,205,2,2,0.4444,TRUE,accuracy
hsft,206,1,1,0.4153,TRUE,accuracy
hsft,207,2,2,0.4952,TRUE,neutral
hsft,208,1,1,0.5328,TRUE,accuracy
hsft,209,2,2,0.4618,TRUE,accuracy
hsft,210,2,2,0.3639,TRUE,speed
hsft,211,1,1,0.5347,TRUE,accuracy
hsft,212,2,2,0.473,TRUE,accuracy
hsft,213,1,1,0.3313,TRUE,speed
hsft,214,2,2,0.5219,TRUE,accuracy
hsft,215,2,2,0.391,TRUE,speed
hsft,216,1,1,0.4306,TRUE,speed
hsft,217,2,2,0.4524,TRUE,neutral
hsft,218,1,1,0.4022,TRUE,neutral
hsft,219,2,2,0.4137,TRUE,speed
hsft,220,2,2,0.3764,TRUE,speed
hsft,221,2,2,0.3869,TRUE,speed
hsft,222,1,1,0.3607,TRUE,speed
hsft,223,1,1,0.4132,TRUE,accuracy
hsft,224,2,1,0.3156,FALSE,speed
hsft,225,2,2,0.4448,TRUE,neutral
hsft,226,2,2,0.473,TRUE,accuracy
hsft,227,2,2,0.5122,TRUE,accuracy
hsft,228,1,1,0.3723,TRUE,speed
hsft,229,1,1,0.4809,TRUE,neutral
hsft,230,2,2,0.3787,TRUE,speed
hsft,231,1,1,0.3523,TRUE,speed
hsft,232,2,2,0.3985,TRUE,speed
hsft,233,2,2,0.599,TRUE,accuracy
hsft,234,1,1,0.5107,TRUE,accuracy
hsft,235,1,1,0.4959,TRUE,neutral
hsft,236,2,2,0.5313,TRUE,accuracy
hsft,237,1,1,0.4711,TRUE,accuracy
hsft,238,1,1,0.4584,TRUE,neutral
hsft,239,2,2,0.4547,TRUE,neutral
hsft,240,1,1,0.4764,TRUE,accuracy
hsft,241,1,1,0.414,TRUE,speed
hsft,242,2,2,0.6719,TRUE,accuracy
hsft,243,1,1,0.395,TRUE,speed
hsft,244,2,2,0.3426,TRUE,speed
hsft,245,1,1,0.5143,TRUE,neutral
hsft,246,2,2,0.6903,TRUE,accuracy
hsft,247,2,2,0.4664,TRUE,neutral
hsft,248,1,1,0.4596,TRUE,accuracy
hsft,249,2,2,0.5052,TRUE,accuracy
hsft,250,1,1,0.4341,TRUE,neutral
hsft,251,2,2,0.5003,TRUE,accuracy
hsft,252,2,2,0.489,TRUE,accuracy
hsft,253,1,1,0.4626,TRUE,accuracy
hsft,254,1,1,0.5074,TRUE,neutral
hsft,255,1,1,0.4719,TRUE,speed
hsft,256,2,2,0.38,TRUE,neutral
hsft,257,1,1,0.4328,TRUE,neutral
hsft,258,1,1,0.3529,TRUE,speed
hsft,259,1,1,0.393,TRUE,speed
hsft,260,2,2,0.5334,TRUE,neutral
hsft,261,1,1,0.4241,TRUE,speed
hsft,262,2,2,0.48,TRUE,neutral
hsft,263,1,1,0.501,TRUE,accuracy
hsft,264,1,1,0.4915,TRUE,accuracy
hsft,265,1,1,0.4139,TRUE,speed
hsft,266,1,1,0.3897,TRUE,speed
hsft,267,2,2,0.3756,TRUE,speed
hsft,268,2,2,0.3981,TRUE,neutral
hsft,269,1,1,0.4239,TRUE,accuracy
hsft,270,1,1,0.4173,TRUE,neutral
hsft,271,1,1,0.4281,TRUE,neutral
hsft,272,2,2,0.5121,TRUE,neutral
hsft,273,2,2,0.4794,TRUE,neutral
hsft,274,1,1,0.4607,TRUE,speed
hsft,275,1,1,0.3068,TRUE,speed
hsft,276,1,1,0.558,TRUE,accuracy
hsft,277,1,2,0.2753,FALSE,speed
hsft,278,1,1,0.3348,TRUE,speed
hsft,279,1,1,0.4907,TRUE,accuracy
hsft,280,1,1,0.3199,TRUE,speed
hsft,281,2,2,0.4209,TRUE,accuracy
hsft,282,2,2,0.38,TRUE,speed
hsft,283,2,2,0.4455,TRUE,accuracy
hsft,284,2,2,0.3592,TRUE,speed
hsft,285,1,1,0.3282,TRUE,speed
hsft,286,1,1,0.4823,TRUE,accuracy
hsft,287,2,2,0.4683,TRUE,accuracy
hsft,288,1,1,0.7709,TRUE,accuracy
hsft,289,2,2,0.4639,TRUE,accuracy
hsft,290,2,2,0.426,TRUE,neutral
hsft,291,1,1,0.3699,TRUE,neutral
hsft,292,1,1,0.3878,TRUE,speed
hsft,293,2,1,0.5173,FALSE,accuracy
hsft,294,2,2,0.4359,TRUE,speed
hsft,295,1,1,0.447,TRUE,neutral
hsft,296,2,2,0.4591,TRUE,accuracy
hsft,297,1,1,0.4058,TRUE,neutral
hsft,298,1,1,0.3887,TRUE,neutral
hsft,299,1,1,0.4835,TRUE,accuracy
hsft,300,1,1,0.4629,TRUE,accuracy
hsft,301,1,1,0.384,TRUE,speed
hsft,302,1,1,0.523,TRUE,neutral
hsft,303,1,1,0.3133,TRUE,speed
hsft,304,2,2,0.4569,TRUE,accuracy
hsft,305,1,1,0.3777,TRUE,accuracy
hsft,306,1,1,0.4842,TRUE,neutral
hsft,307,1,2,0.3825,FALSE,speed
hsft,308,1,1,0.3585,TRUE,accuracy
hsft,309,2,2,0.5606,TRUE,speed
hsft,310,2,2,0.4664,TRUE,accuracy
hsft,311,2,2,0.4129,TRUE,speed
hsft,312,1,1,0.3646,TRUE,speed
hsft,313,1,1,0.38,TRUE,accuracy
hsft,314,1,1,0.3751,TRUE,speed
hsft,315,2,2,0.4459,TRUE,accuracy
hsft,316,1,1,0.4311,TRUE,speed
hsft,317,2,2,0.5037,TRUE,accuracy
hsft,318,2,1,0.292,FALSE,speed
hsft,319,1,1,0.521,TRUE,accuracy
hsft,320,2,2,0.4321,TRUE,accuracy
hsft,321,2,2,0.4049,TRUE,speed
hsft,322,1,1,0.3365,TRUE,speed
hsft,323,2,2,0.5446,TRUE,neutral
hsft,324,1,1,0.6807,TRUE,accuracy
hsft,325,2,2,0.4545,TRUE,neutral
hsft,326,1,1,0.432,TRUE,neutral
hsft,327,2,2,0.7813,TRUE,accuracy
hsft,328,1,1,0.3568,TRUE,speed
hsft,329,1,1,0.562,TRUE,accuracy
hsft,330,2,2,0.4329,TRUE,neutral
hsft,331,2,2,0.262,TRUE,speed
hsft,332,2,2,0.4062,TRUE,accuracy
hsft,333,1,1,0.3821,TRUE,accuracy
hsft,334,2,2,0.4271,TRUE,speed
hsft,335,1,1,0.3354,TRUE,speed
hsft,336,1,1,0.6308,TRUE,neutral
hsft,337,2,2,0.4606,TRUE,accuracy
hsft,338,2,2,0.4055,TRUE,neutral
hsft,339,2,2,0.4108,TRUE,neutral
hsft,340,1,1,0.4478,TRUE,neutral
hsft,341,2,2,0.5123,TRUE,neutral
hsft,342,1,1,0.3212,TRUE,speed
hsft,343,2,2,0.3153,TRUE,speed
hsft,344,1,1,0.2867,TRUE,speed
hsft,345,1,2,0.2913,FALSE,speed
hsft,346,1,1,0.3726,TRUE,accuracy
hsft,347,2,2,0.4839,TRUE,neutral
hsft,348,1,1,0.425,TRUE,neutral
hsft,349,1,1,0.4573,TRUE,neutral
hsft,350,2,2,0.4831,TRUE,accuracy
hsft,351,1,1,0.4013,TRUE,neutral
hsft,352,2,2,0.4791,TRUE,neutral
hsft,353,2,2,0.811,TRUE,neutral
hsft,354,1,1,0.3794,TRUE,accuracy
hsft,355,1,1,0.3795,TRUE,speed
hsft,356,1,1,0.3316,TRUE,speed
hsft,357,2,2,0.4704,TRUE,neutral
hsft,358,2,2,0.399,TRUE,accuracy
hsft,359,1,1,0.3001,TRUE,neutral
hsft,360,1,1,0.3054,TRUE,speed
hsft,361,1,1,0.5577,TRUE,accuracy
hsft,362,2,2,0.5554,TRUE,speed
hsft,363,1,1,0.3494,TRUE,neutral
hsft,364,1,1,0.3648,TRUE,accuracy
hsft,365,1,1,0.4668,TRUE,accuracy
hsft,366,2,2,0.3972,TRUE,speed
hsft,367,1,1,0.3954,TRUE,speed
hsft,368,1,1,0.3694,TRUE,speed
hsft,369,2,2,0.2823,TRUE,speed
hsft,370,2,2,0.4418,TRUE,speed
hsft,371,1,1,0.4702,TRUE,neutral
hsft,372,1,1,0.4701,TRUE,neutral
hsft,373,1,1,0.5129,TRUE,accuracy
hsft,374,1,1,0.4478,TRUE,accuracy
hsft,375,2,2,0.5093,TRUE,speed
hsft,376,2,2,0.3853,TRUE,accuracy
hsft,377,2,2,0.3639,TRUE,speed
hsft,378,2,2,0.406,TRUE,neutral
hsft,379,1,1,0.4463,TRUE,neutral
hsft,380,1,1,0.3613,TRUE,accuracy
hsft,381,1,1,0.4098,TRUE,accuracy
hsft,382,1,1,0.3456,TRUE,speed
hsft,383,1,1,0.3679,TRUE,speed
hsft,384,1,1,0.3931,TRUE,accuracy
hsft,385,1,1,0.3725,TRUE,speed
hsft,386,2,2,0.3273,TRUE,speed
hsft,387,2,2,0.4839,TRUE,accuracy
hsft,388,2,2,0.5235,TRUE,accuracy
hsft,389,2,2,0.625,TRUE,neutral
hsft,390,1,1,0.3749,TRUE,speed
hsft,391,2,2,0.3484,TRUE,speed
hsft,392,2,2,0.4498,TRUE,accuracy
hsft,393,1,1,0.3818,TRUE,speed
hsft,394,1,1,0.565,TRUE,accuracy
hsft,395,2,2,0.5316,TRUE,neutral
hsft,396,2,2,0.4439,TRUE,neutral
hsft,397,2,2,0.401,TRUE,speed
hsft,398,1,1,0.3903,TRUE,neutral
hsft,399,1,1,0.4089,TRUE,neutral
hsft,400,1,1,0.2742,TRUE,speed
hsft,401,1,1,0.3868,TRUE,neutral
hsft,402,1,1,0.4282,TRUE,accuracy
hsft,403,2,2,0.425,TRUE,neutral
hsft,404,1,1,0.4703,TRUE,accuracy
hsft,405,1,1,0.491,TRUE,neutral
hsft,406,1,1,0.4746,TRUE,accuracy
hsft,407,1,1,0.5122,TRUE,neutral
hsft,408,2,2,0.3242,TRUE,speed
hsft,409,2,2,0.5676,TRUE,accuracy
hsft,410,1,1,0.389,TRUE,speed
hsft,411,2,2,0.4007,TRUE,neutral
hsft,412,2,2,0.4495,TRUE,neutral
hsft,413,2,2,0.6354,TRUE,speed
hsft,414,1,1,0.2916,TRUE,speed
hsft,415,2,1,0.3098,FALSE,speed
hsft,416,2,2,0.4309,TRUE,neutral
hsft,417,2,2,0.4622,TRUE,speed
hsft,418,1,1,0.4476,TRUE,neutral
hsft,419,2,1,0.3318,FALSE,speed
hsft,420,1,1,0.5005,TRUE,neutral
hsft,421,1,1,0.4303,TRUE,accuracy
hsft,422,2,2,0.4893,TRUE,accuracy
hsft,423,1,1,0.4356,TRUE,speed
hsft,424,1,1,0.4724,TRUE,speed
hsft,425,1,1,0.4091,TRUE,neutral
hsft,426,2,1,0.4283,FALSE,accuracy
hsft,427,2,2,0.6159,TRUE,accuracy
hsft,428,1,1,0.6131,TRUE,neutral
hsft,429,1,1,0.4019,TRUE,speed
hsft,430,1,1,0.4685,TRUE,accuracy
hsft,431,1,1,0.4889,TRUE,neutral
hsft,432,1,1,0.6599,TRUE,neutral
hsft,433,2,1,0.6314,FALSE,speed
hsft,434,1,1,0.516,TRUE,accuracy
hsft,435,2,2,0.4836,TRUE,accuracy
hsft,436,1,1,0.5839,TRUE,neutral
hsft,437,2,2,0.4378,TRUE,speed
hsft,438,1,1,0.2983,TRUE,speed
hsft,439,2,2,0.3739,TRUE,speed
hsft,440,2,2,0.4656,TRUE,accuracy
hsft,441,2,2,0.4202,TRUE,neutral
hsft,442,2,2,0.5304,TRUE,speed
hsft,443,1,1,0.571,TRUE,accuracy
hsft,444,1,1,0.4856,TRUE,neutral
hsft,445,2,2,0.661,TRUE,accuracy
hsft,446,1,1,0.5028,TRUE,accuracy
hsft,447,1,1,0.3855,TRUE,accuracy
hsft,448,2,2,0.459,TRUE,accuracy
hsft,449,1,2,0.2997,FALSE,speed
hsft,450,2,2,0.3576,TRUE,speed
hsft,451,1,1,0.5185,TRUE,accuracy
hsft,452,1,1,0.4014,TRUE,speed
hsft,453,1,1,0.4852,TRUE,neutral
hsft,454,1,1,0.3861,TRUE,accuracy
hsft,455,1,1,0.4603,TRUE,accuracy
hsft,456,2,2,0.3573,TRUE,speed
hsft,457,2,2,0.3636,TRUE,speed
hsft,458,1,1,0.4558,TRUE,accuracy
hsft,459,1,1,0.4915,TRUE,neutral
hsft,460,1,1,0.4044,TRUE,speed
hsft,461,2,2,0.4786,TRUE,speed
hsft,462,2,2,0.4437,TRUE,speed
hsft,463,1,2,0.4127,FALSE,neutral
hsft,464,1,1,0.42,TRUE,neutral
hsft,465,1,1,0.4847,TRUE,neutral
hsft,466,1,1,0.4314,TRUE,accuracy
hsft,467,2,1,0.3374,FALSE,speed
hsft,468,1,1,0.5506,TRUE,accuracy
hsft,469,1,1,0.5662,TRUE,speed
hsft,470,2,2,0.4747,TRUE,neutral
hsft,471,1,1,0.5015,TRUE,neutral
hsft,472,1,1,0.4094,TRUE,accuracy
hsft,473,2,2,0.3738,TRUE,speed
hsft,474,2,2,0.3824,TRUE,neutral
hsft,475,1,1,0.545,TRUE,neutral
hsft,476,1,1,0.4781,TRUE,neutral
hsft,477,1,1,0.4214,TRUE,accuracy
hsft,478,1,1,0.3898,TRUE,accuracy
hsft,479,1,1,0.3767,TRUE,neutral
hsft,480,1,1,0.362,TRUE,speed
hsft,481,2,2,0.4323,TRUE,accuracy
hsft,482,2,2,0.4797,TRUE,accuracy
hsft,483,2,2,0.4969,TRUE,accuracy
hsft,484,2,2,0.6303,TRUE,accuracy
hsft,485,1,1,0.3519,TRUE,speed
hsft,486,2,2,0.4967,TRUE,neutral
hsft,487,1,1,0.5132,TRUE,accuracy
hsft,488,2,1,0.3052,FALSE,speed
hsft,489,2,2,0.7055,TRUE,accuracy
hsft,490,2,2,0.6742,TRUE,neutral
hsft,491,1,1,0.4109,TRUE,neutral
hsft,492,2,2,0.461,TRUE,accuracy
hsft,493,2,2,0.4921,TRUE,neutral
hsft,494,1,1,0.4246,TRUE,neutral
hsft,495,2,2,0.3745,TRUE,neutral
hsft,496,1,1,0.4706,TRUE,neutral
hsft,497,2,2,0.4069,TRUE,accuracy
hsft,498,2,2,0.3624,TRUE,speed
hsft,499,1,1,0.3022,TRUE,speed
hsft,500,1,1,0.4267,TRUE,neutral
hsft,501,2,2,0.3709,TRUE,speed
hsft,502,1,1,0.3407,TRUE,speed
hsft,503,1,1,0.3682,TRUE,neutral
hsft,504,1,1,0.4257,TRUE,speed
hsft,505,1,1,0.3944,TRUE,speed
hsft,506,1,1,0.4213,TRUE,accuracy
hsft,507,1,2,0.336,FALSE,speed
hsft,508,2,2,0.6142,TRUE,neutral
hsft,509,1,1,0.4685,TRUE,accuracy
hsft,510,1,1,0.3739,TRUE,speed
hsft,511,1,1,0.5589,TRUE,accuracy
hsft,512,1,1,0.5897,TRUE,accuracy
hsft,513,2,2,0.4513,TRUE,neutral
hsft,514,2,2,0.3629,TRUE,speed
hsft,515,2,2,0.3593,TRUE,speed
hsft,516,1,1,0.6956,TRUE,neutral
hsft,517,2,2,0.3896,TRUE,speed
hsft,518,2,2,0.434,TRUE,neutral
hsft,519,2,2,0.4949,TRUE,accuracy
hsft,520,1,1,0.469,TRUE,neutral
hsft,521,1,1,0.4751,TRUE,accuracy
hsft,522,2,2,0.7545,TRUE,neutral
hsft,523,1,1,0.4821,TRUE,accuracy
hsft,524,1,1,0.3684,TRUE,speed
hsft,525,1,1,0.4146,TRUE,neutral
hsft,526,2,2,0.405,TRUE,neutral
hsft,527,2,2,0.3865,TRUE,speed
hsft,528,1,1,0.5047,TRUE,accuracy
hsft,529,1,1,0.3703,TRUE,accuracy
hsft,530,2,2,0.4615,TRUE,speed
hsft,531,1,1,0.3972,TRUE,accuracy
hsft,532,2,2,0.3654,TRUE,speed
hsft,533,1,1,0.4012,TRUE,neutral
hsft,534,1,2,0.4435,FALSE,accuracy
hsft,535,2,2,0.3457,TRUE,speed
hsft,536,1,1,0.4291,TRUE,speed
hsft,537,2,2,0.522,TRUE,accuracy
hsft,538,1,1,0.4725,TRUE,accuracy
hsft,539,2,2,0.4667,TRUE,speed
hsft,540,2,2,0.4143,TRUE,neutral
hsft,541,2,1,0.3336,FALSE,speed
hsft,542,2,1,0.2712,FALSE,speed
hsft,543,2,2,0.5022,TRUE,speed
hsft,544,2,2,0.4182,TRUE,accuracy
hsft,545,2,2,0.4946,TRUE,neutral
hsft,546,2,2,0.4176,TRUE,speed
hsft,547,2,2,0.3804,TRUE,speed
hsft,548,1,1,0.4687,TRUE,accuracy
hsft,549,2,2,0.4344,TRUE,neutral
hsft,550,2,2,0.437,TRUE,speed
hsft,551,2,2,0.7002,TRUE,neutral
hsft,552,1,1,0.4425,TRUE,neutral
hsft,553,1,1,0.4562,TRUE,speed
hsft,554,2,2,0.469,TRUE,accuracy
hsft,555,2,2,0.3848,TRUE,speed
hsft,556,2,2,0.3636,TRUE,neutral
hsft,557,2,2,0.5013,TRUE,accuracy
hsft,558,1,1,0.459,TRUE,neutral
hsft,559,1,1,0.4354,TRUE,neutral
hsft,560,2,2,0.2887,TRUE,speed
hsft,561,2,2,0.4291,TRUE,neutral
hsft,562,2,2,0.479,TRUE,accuracy
hsft,563,2,1,0.346,FALSE,speed
hsft,564,2,2,0.4916,TRUE,neutral
hsft,565,1,1,0.5865,TRUE,speed
